t,accel_x,accel_y,accel_z
0.17908978462219238,-8.53293514251709,-2.212242364883423,-1.4077905416488647
0.18026256561279297,-8.753201484680176,-2.3080103397369385,-1.4269442558288574
0.1813640594482422,-8.724471092224121,-2.212242364883423,-1.4077905416488647
0.1835315227508545,-8.705317497253418,-2.2026655673980713,-1.4173674583435059
0.185715913772583,-8.571242332458496,-2.212242364883423,-1.436521053314209
0.1878952980041504,-8.705317497253418,-2.164358377456665,-1.455674648284912
0.19006705284118652,-8.734047889709473,-2.250549554824829,-1.3694833517074585
0.19117498397827148,-8.686163902282715,-2.250549554824829,-1.3694833517074585
0.19335198402404785,-8.580819129943848,-2.2026655673980713,-1.4460978507995605
0.19552946090698242,-8.743624687194824,-2.1739351749420166,-1.436521053314209
0.1976768970489502,-8.65743350982666,-2.279279947280884,-1.3886369466781616
0.199843168258667,-8.762778282165527,-2.231395959854126,-1.4652514457702637
0.20093297958374023,-8.686163902282715,-2.183511972427368,-1.4077905416488647
0.20311188697814941,-8.772355079650879,-2.1930887699127197,-1.4173674583435059
0.20528650283813477,-8.638279914855957,-2.126051187515259,-1.436521053314209
0.20746707916259766,-8.59997272491455,-2.1930887699127197,-1.4939818382263184
0.2096390724182129,-8.801085472106934,-2.250549554824829,-1.3982137441635132
0.21079158782958984,-8.647856712341309,-2.183511972427368,-1.3694833517074585
0.21297931671142578,-8.638279914855957,-2.1739351749420166,-1.4269442558288574
0.21515846252441406,-8.667010307312012,-2.212242364883423,-1.4077905416488647
0.21733832359313965,-8.705317497253418,-2.1739351749420166,-1.5514427423477173
0.21843552589416504,-8.638279914855957,-2.231395959854126,-1.3407529592514038
0.22060036659240723,-8.686163902282715,-2.231395959854126,-1.3120225667953491
0.2227768898010254,-8.542511940002441,-2.164358377456665,-1.4460978507995605
0.22495007514953613,-8.724471092224121,-2.2026655673980713,-1.4173674583435059
0.22711706161499023,-8.753201484680176,-2.1930887699127197,-1.436521053314209
0.22928905487060547,-8.485051155090332,-2.145204782485962,-1.4077905416488647
0.23042726516723633,-8.820239067077637,-2.2218191623687744,-1.4460978507995605
0.23262691497802734,-8.609549522399902,-2.164358377456665,-1.455674648284912
0.2348346710205078,-8.724471092224121,-2.1930887699127197,-1.455674648284912
0.23705649375915527,-8.686163902282715,-2.1547815799713135,-1.359906554222107
0.23817038536071777,-8.561665534973145,-2.212242364883423,-1.3982137441635132
0.24034452438354492,-8.772355079650879,-2.212242364883423,-1.4077905416488647
0.24252963066101074,-8.686163902282715,-2.2026655673980713,-1.455674648284912
0.2446763515472412,-8.686163902282715,-2.2218191623687744,-1.4077905416488647
0.24683237075805664,-8.619126319885254,-2.1739351749420166,-1.3982137441635132
0.24791479110717773,-8.561665534973145,-2.1739351749420166,-1.3886369466781616
0.2501029968261719,-8.78193187713623,-2.164358377456665,-1.4269442558288574
0.25234222412109375,-8.561665534973145,-2.183511972427368,-1.4269442558288574
0.25455260276794434,-8.753201484680176,-2.1930887699127197,-1.4269442558288574
0.2567288875579834,-8.619126319885254,-2.2218191623687744,-1.359906554222107
0.25785040855407715,-8.686163902282715,-2.1739351749420166,-1.436521053314209
0.2600274085998535,-8.695740699768066,-2.126051187515259,-1.436521053314209
0.2621943950653076,-8.619126319885254,-2.212242364883423,-1.4939818382263184
0.26444053649902344,-8.753201484680176,-2.183511972427368,-1.3407529592514038
0.2655601501464844,-8.609549522399902,-2.183511972427368,-1.4173674583435059
0.26772069931030273,-8.580819129943848,-2.2026655673980713,-1.4460978507995605
0.2698848247528076,-8.724471092224121,-2.164358377456665,-1.4748282432556152
0.2720677852630615,-8.686163902282715,-2.183511972427368,-1.5322890281677246
0.27425289154052734,-8.638279914855957,-2.1356279850006104,-1.3503297567367554
0.275362491607666,-8.65743350982666,-2.2697031497955322,-1.4173674583435059
0.27754712104797363,-8.580819129943848,-2.183511972427368,-1.4173674583435059
0.27973413467407227,-8.762778282165527,-2.1739351749420166,-1.522712230682373
0.282085657119751,-8.5903959274292,-2.1547815799713135,-1.4173674583435059
0.2842748165130615,-8.71489429473877,-2.1930887699127197,-1.455674648284912
0.28537917137145996,-8.676587104797363,-2.164358377456665,-1.3694833517074585
0.28754663467407227,-8.676587104797363,-2.1547815799713135,-1.4460978507995605
0.2897148132324219,-8.59997272491455,-2.183511972427368,-1.4269442558288574
0.29186105728149414,-8.638279914855957,-2.1356279850006104,-1.522712230682373
0.29403042793273926,-8.676587104797363,-2.1547815799713135,-1.3982137441635132
0.29514336585998535,-8.667010307312012,-2.183511972427368,-1.4269442558288574
0.29731249809265137,-8.580819129943848,-2.212242364883423,-1.4173674583435059
0.29956865310668945,-8.686163902282715,-2.164358377456665,-1.4652514457702637
0.30179715156555176,-8.65743350982666,-2.164358377456665,-1.4077905416488647
0.3029210567474365,-8.59997272491455,-2.183511972427368,-1.436521053314209
0.305128812789917,-8.667010307312012,-2.2409727573394775,-1.455674648284912
0.3073248863220215,-8.580819129943848,-2.1547815799713135,-1.3407529592514038
0.3095681667327881,-8.705317497253418,-2.2026655673980713,-1.4460978507995605
0.31173253059387207,-8.561665534973145,-2.164358377456665,-1.436521053314209
0.31281161308288574,-8.734047889709473,-2.1547815799713135,-1.455674648284912
0.31494951248168945,-8.667010307312012,-2.2218191623687744,-1.3503297567367554
0.3171710968017578,-8.609549522399902,-2.231395959854126,-1.436521053314209
0.31934571266174316,-8.571242332458496,-2.1739351749420166,-1.4173674583435059
0.32042860984802246,-8.619126319885254,-2.183511972427368,-1.4173674583435059
0.32259178161621094,-8.667010307312012,-2.250549554824829,-1.4077905416488647
0.3247811794281006,-8.628703117370605,-2.2026655673980713,-1.4939818382263184
0.32706546783447266,-8.753201484680176,-2.212242364883423,-1.4269442558288574
0.3293266296386719,-8.676587104797363,-2.2026655673980713,-1.3886369466781616
0.33043503761291504,-8.571242332458496,-2.212242364883423,-1.4269442558288574
0.3326234817504883,-8.59997272491455,-2.183511972427368,-1.4460978507995605
0.3348102569580078,-8.724471092224121,-2.250549554824829,-1.4652514457702637
0.33708786964416504,-8.609549522399902,-2.250549554824829,-1.4173674583435059
0.3381688594818115,-8.638279914855957,-2.2026655673980713,-1.4173674583435059
0.3403358459472656,-8.580819129943848,-2.2026655673980713,-1.4173674583435059
0.34257078170776367,-8.609549522399902,-2.212242364883423,-1.455674648284912
0.34477877616882324,-8.647856712341309,-2.164358377456665,-1.4844050407409668
0.3469829559326172,-8.71489429473877,-2.2409727573394775,-1.4460978507995605
0.3481006622314453,-8.619126319885254,-2.2218191623687744,-1.3120225667953491
0.35028648376464844,-8.580819129943848,-2.212242364883423,-1.4939818382263184
0.35249924659729004,-8.571242332458496,-2.1739351749420166,-1.3982137441635132
0.35471677780151367,-8.676587104797363,-2.2218191623687744,-1.4844050407409668
0.3558356761932373,-8.65743350982666,-2.2218191623687744,-1.4269442558288574
0.35802388191223145,-8.647856712341309,-2.212242364883423,-1.3982137441635132
0.3601806163787842,-8.65743350982666,-2.250549554824829,-1.4844050407409668
0.3623383045196533,-8.552088737487793,-2.164358377456665,-1.436521053314209
0.36449241638183594,-8.59997272491455,-2.231395959854126,-1.4173674583435059
0.3655722141265869,-8.571242332458496,-2.164358377456665,-1.4652514457702637
0.36771249771118164,-8.580819129943848,-2.231395959854126,-1.37906014919281
0.36989760398864746,-8.743624687194824,-2.1930887699127197,-1.4269442558288574
0.3720707893371582,-8.504204750061035,-2.2697031497955322,-1.4460978507995605
0.374239444732666,-8.628703117370605,-2.164358377456665,-1.522712230682373
0.3764314651489258,-8.5903959274292,-2.250549554824829,-1.3982137441635132
0.3775320053100586,-8.676587104797363,-2.1930887699127197,-1.4269442558288574
0.37980198860168457,-8.628703117370605,-2.2697031497955322,-1.455674648284912
0.3819758892059326,-8.647856712341309,-2.1739351749420166,-1.455674648284912
0.38411378860473633,-8.609549522399902,-2.2026655673980713,-1.37906014919281
0.3851912021636963,-8.5903959274292,-2.2409727573394775,-1.436521053314209
0.3873302936553955,-8.609549522399902,-2.2026655673980713,-1.5131354331970215
0.3895151615142822,-8.628703117370605,-2.2697031497955322,-1.3982137441635132
0.39176225662231445,-8.743624687194824,-2.2218191623687744,-1.455674648284912
0.3939476013183594,-8.456320762634277,-2.2697031497955322,-1.4269442558288574
0.3951222896575928,-8.686163902282715,-2.1930887699127197,-1.436521053314209
0.3973236083984375,-8.628703117370605,-2.2409727573394775,-1.4269442558288574
0.399538516998291,-8.59997272491455,-2.1739351749420166,-1.4652514457702637
0.40172743797302246,-8.667010307312012,-2.279279947280884,-1.4077905416488647
0.4028501510620117,-8.571242332458496,-2.1739351749420166,-1.3694833517074585
0.40503406524658203,-8.667010307312012,-2.2888567447662354,-1.4460978507995605
0.40718746185302734,-8.53293514251709,-2.1739351749420166,-1.4939818382263184
0.4093616008758545,-8.647856712341309,-2.231395959854126,-1.4173674583435059
0.4115104675292969,-8.695740699768066,-2.2218191623687744,-1.4173674583435059
0.41258740425109863,-8.513781547546387,-2.2409727573394775,-1.37906014919281
0.41477441787719727,-8.647856712341309,-2.2218191623687744,-1.5131354331970215
0.4169497489929199,-8.571242332458496,-2.164358377456665,-1.4269442558288574
0.4191286563873291,-8.686163902282715,-2.231395959854126,-1.4077905416488647
0.42132115364074707,-8.619126319885254,-2.164358377456665,-1.4173674583435059
0.42247819900512695,-8.561665534973145,-2.231395959854126,-1.4652514457702637
0.42467665672302246,-8.724471092224121,-2.231395959854126,-1.4269442558288574
0.42688894271850586,-8.561665534973145,-2.183511972427368,-1.455674648284912
0.42905688285827637,-8.619126319885254,-2.2601263523101807,-1.4077905416488647
0.43013978004455566,-8.609549522399902,-2.212242364883423,-1.3982137441635132
0.4323136806488037,-8.609549522399902,-2.212242364883423,-1.4460978507995605
0.43447256088256836,-8.65743350982666,-2.231395959854126,-1.4269442558288574
0.4366629123687744,-8.485051155090332,-2.1739351749420166,-1.4460978507995605
0.43889331817626953,-8.59997272491455,-2.183511972427368,-1.4269442558288574
0.44000244140625,-8.65743350982666,-2.2026655673980713,-1.4269442558288574
0.44225025177001953,-8.571242332458496,-2.1930887699127197,-1.4652514457702637
0.44445347785949707,-8.667010307312012,-2.1547815799713135,-1.436521053314209
0.4466555118560791,-8.580819129943848,-2.2409727573394775,-1.4077905416488647
0.448866605758667,-8.59997272491455,-2.1739351749420166,-1.436521053314209
0.4499669075012207,-8.59997272491455,-2.2218191623687744,-1.4077905416488647
0.45212388038635254,-8.619126319885254,-2.2026655673980713,-1.4173674583435059
0.4542965888977051,-8.65743350982666,-2.1739351749420166,-1.4269442558288574
0.45646023750305176,-8.552088737487793,-2.183511972427368,-1.4173674583435059
0.4575371742248535,-8.705317497253418,-2.1547815799713135,-1.4460978507995605
0.4597206115722656,-8.494627952575684,-2.2601263523101807,-1.37906014919281
0.46190738677978516,-8.724471092224121,-2.2026655673980713,-1.4844050407409668
0.4640822410583496,-8.523358345031738,-2.145204782485962,-1.4269442558288574
0.4662501811981201,-8.638279914855957,-2.2409727573394775,-1.455674648284912
0.46842098236083984,-8.686163902282715,-2.164358377456665,-1.4652514457702637
0.4695112705230713,-8.456320762634277,-2.1547815799713135,-1.3503297567367554
0.47166943550109863,-8.705317497253418,-2.2601263523101807,-1.4269442558288574
0.47383737564086914,-8.446743965148926,-2.1547815799713135,-1.436521053314209
0.4759945869445801,-8.772355079650879,-2.2218191623687744,-1.4652514457702637
0.47820401191711426,-8.571242332458496,-2.1930887699127197,-1.37906014919281
0.4803793430328369,-8.494627952575684,-2.212242364883423,-1.455674648284912
0.4814720153808594,-8.71489429473877,-2.2218191623687744,-1.4173674583435059
0.4836387634277344,-8.53293514251709,-2.126051187515259,-1.3694833517074585
0.48580336570739746,-8.638279914855957,-2.231395959854126,-1.4460978507995605
0.4879722595214844,-8.609549522399902,-2.164358377456665,-1.5418659448623657
0.48910069465637207,-8.5903959274292,-2.212242364883423,-1.3886369466781616
0.49127817153930664,-8.71489429473877,-2.183511972427368,-1.4269442558288574
0.49344778060913086,-8.437167167663574,-2.2218191623687744,-1.436521053314209
0.4956214427947998,-8.753201484680176,-2.164358377456665,-1.6184803247451782
0.4977905750274658,-8.552088737487793,-2.145204782485962,-1.3982137441635132
0.49886512756347656,-8.628703117370605,-2.231395959854126,-1.4460978507995605
0.5009994506835938,-8.609549522399902,-2.183511972427368,-1.3407529592514038
0.5031380653381348,-8.513781547546387,-2.1547815799713135,-1.455674648284912
0.505272388458252,-8.705317497253418,-2.1356279850006104,-1.5131354331970215
0.5074465274810791,-8.552088737487793,-2.183511972427368,-1.436521053314209
0.509615421295166,-8.65743350982666,-2.126051187515259,-1.3886369466781616
0.5107085704803467,-8.465897560119629,-2.250549554824829,-1.4077905416488647
0.5128755569458008,-8.65743350982666,-2.1739351749420166,-1.5514427423477173
0.5150439739227295,-8.552088737487793,-2.183511972427368,-1.436521053314209
0.5172386169433594,-8.71489429473877,-2.2026655673980713,-1.4269442558288574
0.5195674896240234,-8.504204750061035,-2.145204782485962,-1.3503297567367554
0.5206718444824219,-8.65743350982666,-2.1930887699127197,-1.5131354331970215
0.5228531360626221,-8.638279914855957,-2.183511972427368,-1.4173674583435059
0.5250766277313232,-8.504204750061035,-2.1739351749420166,-1.4652514457702637
0.5272297859191895,-8.695740699768066,-2.1930887699127197,-1.4269442558288574
0.528311014175415,-8.494627952575684,-2.183511972427368,-1.37906014919281
0.5304841995239258,-8.772355079650879,-2.145204782485962,-1.436521053314209
0.5327074527740479,-8.47547435760498,-2.183511972427368,-1.4652514457702637
0.5349152088165283,-8.686163902282715,-2.1739351749420166,-1.455674648284912
0.5370960235595703,-8.619126319885254,-2.183511972427368,-1.359906554222107
0.5382363796234131,-8.5903959274292,-2.279279947280884,-1.359906554222107
0.5404460430145264,-8.647856712341309,-2.183511972427368,-1.4748282432556152
0.5426466464996338,-8.53293514251709,-2.145204782485962,-1.5322890281677246
0.5447919368743896,-8.71489429473877,-2.1547815799713135,-1.37906014919281
0.5458719730377197,-8.504204750061035,-2.183511972427368,-1.4077905416488647
0.5480632781982422,-8.5903959274292,-2.164358377456665,-1.4269442558288574
0.550220251083374,-8.743624687194824,-2.2409727573394775,-1.455674648284912
0.552422285079956,-8.542511940002441,-2.0877439975738525,-1.4460978507995605
0.5547089576721191,-8.59997272491455,-2.183511972427368,-1.4652514457702637
0.5558242797851562,-8.571242332458496,-2.212242364883423,-1.4077905416488647
0.5580003261566162,-8.59997272491455,-2.212242364883423,-1.4173674583435059
0.5601906776428223,-8.609549522399902,-2.1930887699127197,-1.4460978507995605
0.5624785423278809,-8.609549522399902,-2.1356279850006104,-1.4844050407409668
0.5635960102081299,-8.5903959274292,-2.183511972427368,-1.359906554222107
0.5658164024353027,-8.676587104797363,-2.2218191623687744,-1.4269442558288574
0.5679745674133301,-8.523358345031738,-2.1930887699127197,-1.4077905416488647
0.5701484680175781,-8.762778282165527,-2.126051187515259,-1.4939818382263184
0.5723612308502197,-8.494627952575684,-2.1547815799713135,-1.37906014919281
0.5734610557556152,-8.638279914855957,-2.2026655673980713,-1.4652514457702637
0.5756268501281738,-8.638279914855957,-2.2026655673980713,-1.3886369466781616
0.5778064727783203,-8.619126319885254,-2.212242364883423,-1.4269442558288574
0.5800495147705078,-8.676587104797363,-2.1547815799713135,-1.4652514457702637
0.5811870098114014,-8.456320762634277,-2.1739351749420166,-1.5131354331970215
0.5833690166473389,-8.743624687194824,-2.183511972427368,-1.4652514457702637
0.585547685623169,-8.580819129943848,-2.2026655673980713,-1.2737152576446533
0.5877377986907959,-8.628703117370605,-2.212242364883423,-1.3982137441635132
0.5899307727813721,-8.53293514251709,-2.183511972427368,-1.4844050407409668
0.5910170078277588,-8.724471092224121,-2.212242364883423,-1.6280571222305298
0.5931618213653564,-8.647856712341309,-2.2026655673980713,-1.37906014919281
0.5953319072723389,-8.619126319885254,-2.1930887699127197,-1.3407529592514038
0.5975019931793213,-8.571242332458496,-2.164358377456665,-1.4173674583435059
0.5997037887573242,-8.628703117370605,-2.1739351749420166,-1.4939818382263184
0.6008212566375732,-8.71489429473877,-2.145204782485962,-1.4939818382263184
0.6030166149139404,-8.580819129943848,-2.231395959854126,-1.3886369466781616
0.605201244354248,-8.619126319885254,-2.231395959854126,-1.359906554222107
0.6073751449584961,-8.628703117370605,-2.183511972427368,-1.4844050407409668
0.6095433235168457,-8.762778282165527,-2.1356279850006104,-1.5514427423477173
0.6106371879577637,-8.571242332458496,-2.2218191623687744,-1.4173674583435059
0.6127979755401611,-8.571242332458496,-2.212242364883423,-1.37906014919281
0.6149492263793945,-8.676587104797363,-2.2218191623687744,-1.3694833517074585
0.6171131134033203,-8.628703117370605,-2.183511972427368,-1.522712230682373
0.6192796230316162,-8.734047889709473,-2.183511972427368,-1.522712230682373
0.620363712310791,-8.542511940002441,-2.2218191623687744,-1.4748282432556152
0.6225101947784424,-8.71489429473877,-2.2409727573394775,-1.3886369466781616
0.6246848106384277,-8.609549522399902,-2.212242364883423,-1.235408067703247
0.6268725395202637,-8.743624687194824,-2.231395959854126,-1.5705963373184204
0.6290555000305176,-8.542511940002441,-2.1356279850006104,-1.4652514457702637
0.6312317848205566,-8.743624687194824,-2.2888567447662354,-1.522712230682373
0.6323275566101074,-8.705317497253418,-2.1930887699127197,-1.1492167711257935
0.6344952583312988,-8.552088737487793,-2.2888567447662354,-1.3407529592514038
0.63669753074646,-8.695740699768066,-2.164358377456665,-1.4748282432556152
0.6388733386993408,-8.628703117370605,-2.183511972427368,-1.6376339197158813
0.6411161422729492,-8.724471092224121,-2.2218191623687744,-1.3982137441635132
0.6422364711761475,-8.571242332458496,-2.279279947280884,-1.216254472732544
0.6443929672241211,-8.676587104797363,-2.2409727573394775,-1.3694833517074585
0.6466188430786133,-8.609549522399902,-2.164358377456665,-1.4748282432556152
0.6487998962402344,-8.71489429473877,-2.2218191623687744,-1.5610195398330688
0.6498923301696777,-8.724471092224121,-2.1164743900299072,-1.436521053314209
0.6520586013793945,-8.609549522399902,-2.3271639347076416,-1.1300631761550903
0.6542224884033203,-8.791508674621582,-2.231395959854126,-1.4652514457702637
0.6563899517059326,-8.513781547546387,-2.183511972427368,-1.522712230682373
0.6585507392883301,-8.829815864562988,-2.1930887699127197,-1.5705963373184204
0.6596264839172363,-8.571242332458496,-2.2026655673980713,-1.3311761617660522
0.6617622375488281,-8.667010307312012,-2.279279947280884,-1.359906554222107
0.663912296295166,-8.743624687194824,-2.2601263523101807,-1.3886369466781616
0.6660537719726562,-8.53293514251709,-2.1930887699127197,-1.5418659448623657
0.6699001789093018,-8.71489429473877,-2.1739351749420166,-1.4460978507995605
0.6710009574890137,-8.523358345031738,-2.250549554824829,-1.37906014919281
0.6720983982086182,-8.772355079650879,-2.250549554824829,-1.4460978507995605
0.6742599010467529,-8.686163902282715,-2.183511972427368,-1.455674648284912
0.6753530502319336,-8.705317497253418,-2.2026655673980713,-1.436521053314209
0.6775274276733398,-8.571242332458496,-2.1356279850006104,-1.4269442558288574
0.6797161102294922,-8.619126319885254,-2.279279947280884,-1.3982137441635132
0.6818921566009521,-8.868123054504395,-2.250549554824829,-1.436521053314209
0.6840713024139404,-8.580819129943848,-2.231395959854126,-1.359906554222107
0.6851444244384766,-8.705317497253418,-2.2026655673980713,-1.455674648284912
0.6872835159301758,-8.580819129943848,-2.1930887699127197,-1.4269442558288574
0.6894190311431885,-8.753201484680176,-2.2026655673980713,-1.4173674583435059
0.6915633678436279,-8.78193187713623,-2.298433542251587,-1.436521053314209
0.6937234401702881,-8.561665534973145,-2.1930887699127197,-1.3886369466781616
0.6958603858947754,-8.753201484680176,-2.2409727573394775,-1.4269442558288574
0.6969518661499023,-8.619126319885254,-2.231395959854126,-1.4460978507995605
0.6991143226623535,-8.705317497253418,-2.2218191623687744,-1.4077905416488647
0.7012777328491211,-8.753201484680176,-2.298433542251587,-1.455674648284912
0.7034399509429932,-8.638279914855957,-2.1930887699127197,-1.3407529592514038
0.7055883407592773,-8.724471092224121,-2.2601263523101807,-1.4460978507995605
0.7066597938537598,-8.580819129943848,-2.1930887699127197,-1.4077905416488647
0.708798885345459,-8.695740699768066,-2.2026655673980713,-1.436521053314209
0.7109386920928955,-8.65743350982666,-2.2218191623687744,-1.4173674583435059
0.7130820751190186,-8.686163902282715,-2.231395959854126,-1.3407529592514038
0.7152228355407715,-8.647856712341309,-2.1739351749420166,-1.436521053314209
0.7173764705657959,-8.695740699768066,-2.2697031497955322,-1.4173674583435059
0.7195382118225098,-8.705317497253418,-2.183511972427368,-1.4173674583435059
0.7206292152404785,-8.5903959274292,-2.2026655673980713,-1.436521053314209
0.7227869033813477,-8.686163902282715,-2.212242364883423,-1.3215993642807007
0.7249510288238525,-8.724471092224121,-2.2601263523101807,-1.4173674583435059
0.7271144390106201,-8.59997272491455,-2.1739351749420166,-1.4748282432556152
0.7292652130126953,-8.734047889709473,-2.231395959854126,-1.4460978507995605
0.7303404808044434,-8.695740699768066,-2.212242364883423,-1.3982137441635132
0.7324726581573486,-8.59997272491455,-2.212242364883423,-1.4077905416488647
0.7346007823944092,-8.753201484680176,-2.2601263523101807,-1.4269442558288574
0.736732006072998,-8.609549522399902,-2.1930887699127197,-1.4460978507995605
0.7388856410980225,-8.753201484680176,-2.183511972427368,-1.522712230682373
0.7399771213531494,-8.580819129943848,-2.2218191623687744,-1.3694833517074585
0.7421448230743408,-8.676587104797363,-2.231395959854126,-1.3982137441635132
0.7443060874938965,-8.667010307312012,-2.2409727573394775,-1.3694833517074585
0.7464768886566162,-8.65743350982666,-2.212242364883423,-1.4939818382263184
0.7486505508422852,-8.724471092224121,-2.2026655673980713,-1.5705963373184204
0.7507848739624023,-8.628703117370605,-2.231395959854126,-1.3120225667953491
0.7529370784759521,-8.686163902282715,-2.183511972427368,-1.3694833517074585
0.7540144920349121,-8.561665534973145,-2.2888567447662354,-1.436521053314209
0.7561535835266113,-8.791508674621582,-2.1547815799713135,-1.647210717201233
0.7582917213439941,-8.676587104797363,-2.164358377456665,-1.3982137441635132
0.7604250907897949,-8.695740699768066,-2.1930887699127197,-1.3215993642807007
0.7615153789520264,-8.619126319885254,-2.250549554824829,-1.3886369466781616
0.7636928558349609,-8.705317497253418,-2.164358377456665,-1.4460978507995605
0.7659037113189697,-8.78193187713623,-2.126051187515259,-1.455674648284912
0.76808762550354,-8.580819129943848,-2.183511972427368,-1.4269442558288574
0.7702596187591553,-8.695740699768066,-2.2697031497955322,-1.3311761617660522
0.7713570594787598,-8.638279914855957,-2.231395959854126,-1.4077905416488647
0.7735216617584229,-8.667010307312012,-2.1739351749420166,-1.436521053314209
0.7757017612457275,-8.743624687194824,-2.183511972427368,-1.5897499322891235
0.7778630256652832,-8.53293514251709,-2.2218191623687744,-1.3407529592514038
0.7800371646881104,-8.734047889709473,-2.279279947280884,-1.37906014919281
0.7811272144317627,-8.638279914855957,-2.1930887699127197,-1.4173674583435059
0.783292293548584,-8.628703117370605,-2.1739351749420166,-1.4844050407409668
0.7854743003845215,-8.734047889709473,-2.1356279850006104,-1.455674648284912
0.7876567840576172,-8.561665534973145,-2.2218191623687744,-1.4173674583435059
0.7898657321929932,-8.801085472106934,-2.2409727573394775,-1.3503297567367554
0.7909972667694092,-8.542511940002441,-2.2026655673980713,-1.3886369466781616
0.7931864261627197,-8.686163902282715,-2.1547815799713135,-1.4748282432556152
0.7953824996948242,-8.705317497253418,-2.1356279850006104,-1.4269442558288574
0.797565221786499,-8.5903959274292,-2.1739351749420166,-1.4077905416488647
0.7997345924377441,-8.724471092224121,-2.2697031497955322,-1.37906014919281
0.80082106590271,-8.647856712341309,-2.2218191623687744,-1.436521053314209
0.8029642105102539,-8.65743350982666,-2.183511972427368,-1.4748282432556152
0.8052270412445068,-8.647856712341309,-2.164358377456665,-1.4077905416488647
0.8074116706848145,-8.59997272491455,-2.2888567447662354,-1.3982137441635132
0.8095781803131104,-8.686163902282715,-2.2409727573394775,-1.4077905416488647
0.8106701374053955,-8.638279914855957,-2.1547815799713135,-1.4844050407409668
0.8128330707550049,-8.743624687194824,-2.1547815799713135,-1.455674648284912
0.8149924278259277,-8.561665534973145,-2.1930887699127197,-1.2832920551300049
0.8171572685241699,-8.686163902282715,-2.2409727573394775,-1.4844050407409668
0.819319486618042,-8.628703117370605,-2.1547815799713135,-1.4269442558288574
0.8204121589660645,-8.724471092224121,-2.2218191623687744,-1.436521053314209
0.8225946426391602,-8.638279914855957,-2.126051187515259,-1.4173674583435059
0.8247416019439697,-8.580819129943848,-2.2218191623687744,-1.455674648284912
0.8268997669219971,-8.762778282165527,-2.183511972427368,-1.436521053314209
0.8290450572967529,-8.542511940002441,-2.212242364883423,-1.3694833517074585
0.8301172256469727,-8.724471092224121,-2.2026655673980713,-1.5514427423477173
0.8322803974151611,-8.5903959274292,-2.250549554824829,-1.3503297567367554
0.8344428539276123,-8.724471092224121,-2.1739351749420166,-1.455674648284912
0.8366043567657471,-8.542511940002441,-2.212242364883423,-1.37906014919281
0.8387701511383057,-8.686163902282715,-2.1739351749420166,-1.4844050407409668
0.8409326076507568,-8.71489429473877,-2.2026655673980713,-1.4269442558288574
0.8420367240905762,-8.5903959274292,-2.1930887699127197,-1.4652514457702637
0.8442075252532959,-8.724471092224121,-2.2026655673980713,-1.4173674583435059
0.8463833332061768,-8.580819129943848,-2.2218191623687744,-1.4173674583435059
0.8485293388366699,-8.71489429473877,-2.1930887699127197,-1.436521053314209
0.8506968021392822,-8.53293514251709,-2.145204782485962,-1.4173674583435059
0.8517844676971436,-8.705317497253418,-2.2601263523101807,-1.4173674583435059
0.853961706161499,-8.647856712341309,-2.250549554824829,-1.455674648284912
0.8561418056488037,-8.5903959274292,-2.1930887699127197,-1.4077905416488647
0.8583626747131348,-8.667010307312012,-2.183511972427368,-1.4077905416488647
0.8605563640594482,-8.580819129943848,-2.212242364883423,-1.455674648284912
0.8616609573364258,-8.65743350982666,-2.1739351749420166,-1.436521053314209
0.8638572692871094,-8.705317497253418,-2.231395959854126,-1.4269442558288574
0.8660304546356201,-8.5903959274292,-2.2218191623687744,-1.3694833517074585
0.868218183517456,-8.552088737487793,-2.2218191623687744,-1.455674648284912
0.8693044185638428,-8.65743350982666,-2.183511972427368,-1.4748282432556152
0.8714456558227539,-8.676587104797363,-2.164358377456665,-1.4269442558288574
0.8735997676849365,-8.628703117370605,-2.231395959854126,-1.359906554222107
0.8757450580596924,-8.5903959274292,-2.183511972427368,-1.436521053314209
0.8779010772705078,-8.667010307312012,-2.1739351749420166,-1.4460978507995605
0.8800740242004395,-8.695740699768066,-2.2026655673980713,-1.5322890281677246
0.8811736106872559,-8.504204750061035,-2.2026655673980713,-1.4077905416488647
0.8833434581756592,-8.71489429473877,-2.231395959854126,-1.4077905416488647
0.8855128288269043,-8.53293514251709,-2.2218191623687744,-1.3311761617660522
0.8876814842224121,-8.676587104797363,-2.2409727573394775,-1.580173134803772
0.8899428844451904,-8.59997272491455,-2.1739351749420166,-1.436521053314209
0.891054630279541,-8.65743350982666,-2.250549554824829,-1.3982137441635132
0.893211841583252,-8.667010307312012,-2.183511972427368,-1.3407529592514038
0.8953580856323242,-8.5903959274292,-2.231395959854126,-1.50355863571167
0.8975462913513184,-8.71489429473877,-2.1930887699127197,-1.4652514457702637
0.89969801902771,-8.53293514251709,-2.2218191623687744,-1.4269442558288574
0.9007983207702637,-8.647856712341309,-2.183511972427368,-1.4173674583435059
0.9029793739318848,-8.609549522399902,-2.2026655673980713,-1.4077905416488647
0.9051589965820312,-8.705317497253418,-2.183511972427368,-1.4748282432556152
0.9073388576507568,-8.59997272491455,-2.1930887699127197,-1.4173674583435059
0.9095182418823242,-8.59997272491455,-2.2218191623687744,-1.4077905416488647
0.9106228351593018,-8.609549522399902,-2.2026655673980713,-1.4077905416488647
0.9128036499023438,-8.5903959274292,-2.231395959854126,-1.4460978507995605
0.914989709854126,-8.743624687194824,-2.2697031497955322,-1.4844050407409668
0.9171345233917236,-8.523358345031738,-2.2218191623687744,-1.4173674583435059
0.9193019866943359,-8.695740699768066,-2.212242364883423,-1.436521053314209
0.9203896522521973,-8.542511940002441,-2.212242364883423,-1.3886369466781616
0.9225304126739502,-8.667010307312012,-2.1547815799713135,-1.5131354331970215
0.9246964454650879,-8.619126319885254,-2.164358377456665,-1.37906014919281
0.9268994331359863,-8.580819129943848,-2.1930887699127197,-1.4460978507995605
0.9290988445281982,-8.628703117370605,-2.212242364883423,-1.4077905416488647
0.9302170276641846,-8.619126319885254,-2.1930887699127197,-1.4077905416488647
0.9324023723602295,-8.686163902282715,-2.1930887699127197,-1.4460978507995605
0.9345855712890625,-8.485051155090332,-2.212242364883423,-1.4173674583435059
0.9367668628692627,-8.638279914855957,-2.2026655673980713,-1.436521053314209
0.9389452934265137,-8.5903959274292,-2.231395959854126,-1.455674648284912
0.9400272369384766,-8.628703117370605,-2.212242364883423,-1.3886369466781616
0.942183256149292,-8.628703117370605,-2.183511972427368,-1.4269442558288574
0.9443607330322266,-8.47547435760498,-2.2026655673980713,-1.4269442558288574
0.9465088844299316,-8.71489429473877,-2.2026655673980713,-1.4269442558288574
0.9486966133117676,-8.580819129943848,-2.2218191623687744,-1.4269442558288574
0.9497976303100586,-8.638279914855957,-2.2026655673980713,-1.4652514457702637
0.9519658088684082,-8.609549522399902,-2.164358377456665,-1.4269442558288574
0.9541301727294922,-8.609549522399902,-2.183511972427368,-1.4077905416488647
0.956298828125,-8.667010307312012,-2.1739351749420166,-1.436521053314209
0.9585638046264648,-8.609549522399902,-2.1930887699127197,-1.4173674583435059
0.9596912860870361,-8.647856712341309,-2.183511972427368,-1.4269442558288574
0.9618525505065918,-8.513781547546387,-2.212242364883423,-1.4077905416488647
0.9640090465545654,-8.609549522399902,-2.164358377456665,-1.436521053314209
0.9661972522735596,-8.686163902282715,-2.1547815799713135,-1.4460978507995605
0.9683778285980225,-8.580819129943848,-2.2409727573394775,-1.4460978507995605
0.9694578647613525,-8.686163902282715,-2.1739351749420166,-1.4460978507995605
0.9716029167175293,-8.580819129943848,-2.1739351749420166,-1.4173674583435059
0.9737727642059326,-8.638279914855957,-2.164358377456665,-1.4077905416488647
0.9759557247161865,-8.552088737487793,-2.231395959854126,-1.4269442558288574
0.9781670570373535,-8.59997272491455,-2.1739351749420166,-1.5514427423477173
0.9792697429656982,-8.676587104797363,-2.183511972427368,-1.4173674583435059
0.9814555644989014,-8.638279914855957,-2.2218191623687744,-1.4077905416488647
0.983673095703125,-8.580819129943848,-2.164358377456665,-1.4460978507995605
0.9858341217041016,-8.5903959274292,-2.1930887699127197,-1.4173674583435059
0.986922025680542,-8.619126319885254,-2.2218191623687744,-1.5131354331970215
0.9890847206115723,-8.619126319885254,-2.1547815799713135,-1.4269442558288574
0.991253137588501,-8.695740699768066,-2.231395959854126,-1.37906014919281
0.9934306144714355,-8.47547435760498,-2.1547815799713135,-1.4077905416488647
0.9956767559051514,-8.628703117370605,-2.250549554824829,-1.5322890281677246
0.9978537559509277,-8.65743350982666,-2.126051187515259,-1.4269442558288574
0.9989466667175293,-8.53293514251709,-2.1930887699127197,-1.3886369466781616
1.0052745342254639,-8.571242332458496,-2.231395959854126,-1.3982137441635132
1.006404161453247,-8.667010307312012,-2.183511972427368,-1.455674648284912
1.0075714588165283,-8.59997272491455,-2.1547815799713135,-1.436521053314209
1.0086650848388672,-8.695740699768066,-2.183511972427368,-1.4460978507995605
1.0097472667694092,-8.504204750061035,-2.2026655673980713,-1.4269442558288574
1.0108239650726318,-8.667010307312012,-2.1739351749420166,-1.3886369466781616
1.0129945278167725,-8.322244644165039,-2.2409727573394775,-1.2258312702178955
1.015146017074585,-8.044517517089844,-2.38462495803833,-0.9672574996948242
1.0172889232635498,-7.939172744750977,-2.212242364883423,0.4213795065879822
1.0183894634246826,-8.523358345031738,-2.250549554824829,-0.028730420395731926
1.0205729007720947,-8.78193187713623,-2.1068975925445557,-1.436521053314209
1.0227773189544678,-9.02135181427002,-1.9536685943603516,-2.164358377456665
1.0249593257904053,-8.810662269592285,-1.6950948238372803,-0.6799532771110535
1.027137279510498,-7.3454108238220215,-1.8195933103561401,1.522712230682373
1.0282390117645264,-6.4834980964660645,-1.9728221893310547,2.557007312774658
1.0304319858551025,-6.4834980964660645,-1.9345149993896484,2.1356279850006104
1.0325870513916016,-6.933608055114746,-2.183511972427368,1.723825216293335
1.0347280502319336,-7.1921820640563965,-2.2026655673980713,1.3311761617660522
1.0369009971618652,-6.8378400802612305,-1.9919757843017578,1.4173674583435059
1.0379841327667236,-6.885724067687988,-1.6759412288665771,1.0342950820922852
1.040151834487915,-6.89530086517334,-1.5322890281677246,-1.0342950820922852
1.0423314571380615,-7.354987621307373,-1.6280571222305298,-3.332728862762451
1.0445096492767334,-8.092401504516602,-2.0590133666992188,-3.7828385829925537
1.0466890335083008,-8.341399192810059,-2.451662540435791,-3.600879430770874
1.0477895736694336,-8.169015884399414,-2.7102363109588623,-3.428496837615967
1.049971103668213,-7.661445617675781,-2.518700122833252,-3.993528366088867
1.0521502494812012,-7.086836814880371,-2.5091233253479004,-4.07014274597168
1.0543286800384521,-7.297526836395264,-2.691082715988159,-3.648763418197632
1.056478500366211,-7.402871608734131,-3.0166940689086914,-3.2561142444610596
1.0575575828552246,-7.374141216278076,-3.093308687210083,-3.5242648124694824
1.05973482131958,-7.038952827453613,-2.6623523235321045,-3.6296098232269287
1.0618903636932373,-6.445190906524658,-2.279279947280884,-3.6104562282562256
1.0640356540679932,-6.464344501495361,-2.31758713722229,-3.380612850189209
1.0662057399749756,-6.780379295349121,-2.652775526046753,-3.1507694721221924
1.0673110485076904,-7.067683219909668,-2.911349296569824,-2.911349296569824
1.0694890022277832,-6.847416877746582,-2.8634653091430664,-2.786850690841675
1.071666955947876,-6.253654956817627,-2.652775526046753,-2.557007312774658
1.0738444328308105,-6.119579315185547,-2.518700122833252,-2.4229321479797363
1.0760259628295898,-6.215347766876221,-2.451662540435791,-2.365471363067627
1.0771450996398926,-6.588842868804932,-2.4229321479797363,-2.5953147411346436
1.0793006420135498,-6.598419666290283,-2.1739351749420166,-2.738966703414917
1.0814454555511475,-6.540958881378174,-1.886630892753601,-2.9975404739379883
1.0836095809936523,-6.253654956817627,-1.7334020137786865,-2.853888511657715
1.0857641696929932,-6.14831018447876,-1.8579005002975464,-2.8826189041137695
1.0879757404327393,-6.311115741729736,-2.0685901641845703,-2.1739351749420166
1.089090347290039,-6.560112476348877,-2.279279947280884,-1.5610195398330688
1.0912740230560303,-6.224924564361572,-2.4899697303771973,-1.0821791887283325
1.0934691429138184,-6.042964935302734,-2.5091233253479004,-1.3215993642807007
1.0956616401672363,-5.937620162963867,-2.3942017555236816,-1.1875240802764893
1.0967681407928467,-6.138733386993408,-2.3942017555236816,-1.0342950820922852
1.0989537239074707,-6.129156112670898,-2.31758713722229,-0.8619126081466675
1.1011042594909668,-6.090848922729492,-2.1164743900299072,-1.072602391242981
1.1032755374908447,-5.995080947875977,-1.9919757843017578,-1.2258312702178955
1.1054632663726807,-5.975927352905273,-1.9249382019042969,-1.8291701078414917
1.1065583229064941,-5.995080947875977,-2.0207061767578125,-1.8291701078414917
1.108738899230957,-6.234501361846924,-2.2697031497955322,-1.4652514457702637
1.1109485626220703,-6.282385349273682,-2.3558945655822754,-1.4460978507995605
1.1131885051727295,-6.349422931671143,-2.346317768096924,-2.0877439975738525
1.1154022216796875,-6.4164605140686035,-2.164358377456665,-2.7293899059295654
1.1165192127227783,-6.387730121612549,-2.0207061767578125,-2.9879636764526367
1.1187126636505127,-6.588842868804932,-2.1068975925445557,-2.920926094055176
1.1209166049957275,-6.560112476348877,-2.1356279850006104,-2.9688100814819336
1.1231138706207275,-6.531382083892822,-2.0015525817871094,-3.0358476638793945
1.1242032051086426,-6.349422931671143,-1.9632453918457031,-3.2082302570343018
1.1263811588287354,-6.052541732788086,-1.9823989868164062,-2.9017724990844727
1.1285521984100342,-6.081272125244141,-2.145204782485962,-2.38462495803833
1.1307635307312012,-6.167463779449463,-2.3080103397369385,-1.9632453918457031
1.1329436302185059,-6.138733386993408,-2.365471363067627,-1.9823989868164062
1.1340579986572266,-6.119579315185547,-2.298433542251587,-2.31758713722229
1.1362648010253906,-6.119579315185547,-2.250549554824829,-2.3558945655822754
1.1384875774383545,-6.157886981964111,-2.2409727573394775,-2.279279947280884
1.1407337188720703,-6.311115741729736,-2.2697031497955322,-2.2697031497955322
1.1429250240325928,-6.378153324127197,-2.2218191623687744,-2.2601263523101807
1.144029140472412,-6.2632317543029785,-2.145204782485962,-2.3271639347076416
1.146212100982666,-6.090848922729492,-2.0207061767578125,-2.2218191623687744
1.1483912467956543,-6.023811340332031,-2.011129379272461,-1.9919757843017578
1.1505439281463623,-6.033388137817383,-2.0015525817871094,-1.7046716213226318
1.1516473293304443,-6.119579315185547,-1.9345149993896484,-1.7046716213226318
1.1538026332855225,-6.14831018447876,-1.9153614044189453,-1.8291701078414917
1.1559643745422363,-6.090848922729492,-1.800439715385437,-1.886630892753601
1.1605708599090576,-6.090848922729492,-1.7908629179000854,-1.944091796875
1.1616816520690918,-6.14831018447876,-1.7908629179000854,-1.8387469053268433
1.1628007888793945,-6.196194171905518,-1.8195933103561401,-1.8387469053268433
1.1638994216918945,-6.282385349273682,-1.7812861204147339,-1.8962076902389526
1.1660709381103516,-6.196194171905518,-1.7142484188079834,-1.8770540952682495
1.1682391166687012,-6.224924564361572,-1.7812861204147339,-1.7717092037200928
1.169334888458252,-6.205770969390869,-1.8291701078414917,-1.7717092037200928
1.1715221405029297,-6.253654956817627,-1.8483237028121948,-1.8483237028121948
1.1736702919006348,-6.387730121612549,-1.8387469053268433,-2.011129379272461
1.1753244400024414,-6.378153324127197,-1.8195933103561401,-2.049436569213867
1.177555799484253,-6.349422931671143,-1.800439715385437,-2.011129379272461
1.179743766784668,-6.3973069190979,-1.7334020137786865,-2.078166961669922
1.181913137435913,-6.406883716583252,-1.6950948238372803,-2.164358377456665
1.1840827465057373,-6.540958881378174,-1.6663644313812256,-2.1547815799713135
1.1851801872253418,-6.445190906524658,-1.6663644313812256,-1.9919757843017578
1.1873502731323242,-6.3302693367004395,-1.6184803247451782,-1.8962076902389526
1.1895177364349365,-6.320692539215088,-1.522712230682373,-1.886630892753601
1.191697597503662,-6.320692539215088,-1.455674648284912,-1.9919757843017578
1.1938676834106445,-6.3973069190979,-1.4077905416488647,-2.049436569213867
1.194969892501831,-6.368576526641846,-1.3886369466781616,-1.8962076902389526
1.1971385478973389,-6.378153324127197,-1.3982137441635132,-1.7812861204147339
1.1993086338043213,-6.368576526641846,-1.37906014919281,-1.867477297782898
1.201479196548462,-6.426037311553955,-1.292868971824646,-2.0398597717285156
1.202571153640747,-6.521805286407471,-1.3024457693099976,-2.1356279850006104
1.2047371864318848,-6.560112476348877,-1.4173674583435059,-1.886630892753601
1.2069103717803955,-6.540958881378174,-1.455674648284912,-1.7334020137786865
1.2090771198272705,-6.473921298980713,-1.3694833517074585,-1.7525556087493896
1.2113316059112549,-6.473921298980713,-1.3311761617660522,-1.7812861204147339
1.2124314308166504,-6.57926607131958,-1.3024457693099976,-1.742978811264038
1.2145979404449463,-6.57926607131958,-1.3311761617660522,-1.5322890281677246
1.2167723178863525,-6.560112476348877,-1.3503297567367554,-1.4173674583435059
1.218937635421753,-6.493074893951416,-1.2449848651885986,-1.4173674583435059
1.2211101055145264,-6.4834980964660645,-1.1204863786697388,-1.4748282432556152
1.2222063541412354,-6.560112476348877,-1.0630255937576294,-1.522712230682373
1.2243785858154297,-6.550535678863525,-1.0821791887283325,-1.4173674583435059
1.2265467643737793,-6.598419666290283,-1.1109095811843872,-1.37906014919281
1.2287135124206543,-6.598419666290283,-1.0630255937576294,-1.4269442558288574
1.2308838367462158,-6.646304130554199,-0.9672574996948242,-1.6089035272598267
1.2319788932800293,-6.703764915466309,-0.9481038451194763,-1.7717092037200928
1.2341458797454834,-6.780379295349121,-0.9864110946655273,-1.7717092037200928
1.2363221645355225,-6.9240312576293945,-1.0342950820922852,-1.7621324062347412
1.238490343093872,-7.000645637512207,-1.0534487962722778,-1.9153614044189453
1.2406578063964844,-7.058106422424316,-1.0342950820922852,-2.212242364883423
1.24176025390625,-7.048529624938965,-1.0247182846069336,-2.0398597717285156
1.2439284324645996,-6.971915245056152,-1.0438719987869263,-1.7046716213226318
1.2460994720458984,-6.981492042541504,-1.0630255937576294,-1.4844050407409668
1.2482655048370361,-6.9910688400268555,-1.0630255937576294,-1.4748282432556152
1.250429630279541,-6.952761650085449,-1.0438719987869263,-1.455674648284912
1.2525999546051025,-6.856993675231934,-0.9385270476341248,-1.3982137441635132
1.2536938190460205,-6.9240312576293945,-0.9002198576927185,-1.3503297567367554
1.2558634281158447,-6.856993675231934,-0.8906430602073669,-1.3694833517074585
1.2580406665802002,-7.000645637512207,-0.871489405632019,-1.4269442558288574
1.2602097988128662,-7.000645637512207,-0.8427590131759644,-1.3886369466781616
1.2623822689056396,-6.9910688400268555,-0.8427590131759644,-1.37906014919281
1.2634780406951904,-7.048529624938965,-0.7948749661445618,-1.4173674583435059
1.2656440734863281,-7.096413612365723,-0.7948749661445618,-1.436521053314209
1.2678163051605225,-7.249642848968506,-0.7852981686592102,-1.4652514457702637
1.2699813842773438,-7.144298076629639,-0.727837324142456,-1.4460978507995605
1.2721495628356934,-7.163451671600342,-0.7182605266571045,-1.4173674583435059
1.2732429504394531,-7.15387487411499,-0.7565677165985107,-1.4269442558288574
1.2754096984863281,-7.144298076629639,-0.7182605266571045,-1.4173674583435059
1.277578592300415,-7.220912456512451,-0.6799532771110535,-1.37906014919281
1.2797443866729736,-7.240066051483154,-0.6799532771110535,-1.1971008777618408
1.2819149494171143,-7.144298076629639,-0.6799532771110535,-1.158793568611145
1.2830133438110352,-7.2113356590271,-0.6991068720817566,-1.2641384601593018
1.2851896286010742,-7.259219646453857,-0.6607996821403503,-1.2258312702178955
1.2873609066009521,-7.220912456512451,-0.7182605266571045,-1.0630255937576294
1.289524793624878,-7.220912456512451,-0.7469909191131592,-1.0630255937576294
1.2916948795318604,-7.326257228851318,-0.7469909191131592,-1.1109095811843872
1.2928030490875244,-7.393294811248779,-0.7565677165985107,-1.1971008777618408
1.294968605041504,-7.450755596160889,-0.689530074596405,-1.2545616626739502
1.297135829925537,-7.479485988616943,-0.689530074596405,-1.2832920551300049
1.299302101135254,-7.546523571014404,-0.7757213711738586,-1.3120225667953491
1.3014686107635498,-7.661445617675781,-0.7661445140838623,-1.3982137441635132
1.3036415576934814,-7.603984832763672,-0.7374141216278076,-1.3694833517074585
1.3047409057617188,-7.680599212646484,-0.8140285611152649,-1.3311761617660522
1.3069095611572266,-7.671022415161133,-0.8427590131759644,-1.3024457693099976
1.309086561203003,-7.747636795043945,-0.8619126081466675,-1.2258312702178955
1.3112554550170898,-7.814674377441406,-0.871489405632019,-1.0630255937576294
1.3123552799224854,-7.843404769897461,-0.8906430602073669,-1.1013327836990356
1.3145251274108887,-7.7763671875,-0.871489405632019,-1.1109095811843872
1.3166906833648682,-7.785943984985352,-0.8810662031173706,-1.0055646896362305
1.3188629150390625,-7.814674377441406,-0.9576807022094727,-0.8044517636299133
1.32102632522583,-7.814674377441406,-1.015141487121582,-0.6607996821403503
1.3231964111328125,-7.824251174926758,-1.0438719987869263,-0.8427590131759644
1.3242919445037842,-8.015787124633789,-1.0438719987869263,-0.9768342971801758
1.326456069946289,-8.02536392211914,-1.1109095811843872,-0.9097966551780701
1.3286545276641846,-8.073247909545898,-1.1300631761550903,-0.9576807022094727
1.3308238983154297,-8.121131896972656,-1.1492167711257935,-0.9097966551780701
1.3329966068267822,-8.159439086914062,-1.1971008777618408,-0.9385270476341248
1.3340919017791748,-8.178592681884766,-1.235408067703247,-0.8523358106613159
1.3362603187561035,-8.245630264282227,-1.2545616626739502,-0.9002198576927185
1.3384296894073486,-8.322244644165039,-1.2737152576446533,-0.9193734526634216
1.34059476852417,-8.35097599029541,-1.2545616626739502,-0.8331822156906128
1.342775821685791,-8.283937454223633,-1.2449848651885986,-0.5937620401382446
1.3438818454742432,-8.274360656738281,-1.235408067703247,-0.507570743560791
1.3460493087768555,-8.226476669311523,-1.2641384601593018,-0.4118026793003082
1.3482234477996826,-8.274360656738281,-1.3311761617660522,-0.2968810200691223
1.3503913879394531,-8.312667846679688,-1.37906014919281,-0.2585737705230713
1.3525581359863281,-8.370129585266113,-1.3886369466781616,-0.3064578175544739
1.3536581993103027,-8.437167167663574,-1.4269442558288574,-0.33518823981285095
1.3558480739593506,-8.619126319885254,-1.50355863571167,-0.40222588181495667
1.3580148220062256,-8.647856712341309,-1.5418659448623657,-0.363918662071228
1.3601880073547363,-8.676587104797363,-1.6184803247451782,-0.4405331015586853
1.3623552322387695,-8.743624687194824,-1.6663644313812256,-0.4405331015586853
1.3634560108184814,-8.820239067077637,-1.6759412288665771,-0.26815059781074524
1.365621566772461,-8.743624687194824,-1.6950948238372803,-0.2298433631658554
1.3678135871887207,-8.71489429473877,-1.7812861204147339,-0.1628057211637497
1.3699839115142822,-8.705317497253418,-1.7525556087493896,-0.06703764945268631
1.3721513748168945,-8.686163902282715,-1.7908629179000854,0.047884032130241394
1.373246192932129,-8.762778282165527,-1.9057846069335938,-0.009576806798577309
1.3754220008850098,-8.887276649475098,-1.9249382019042969,-0.14365209639072418
1.3775889873504639,-9.040505409240723,-1.9823989868164062,-0.1628057211637497
1.3798139095306396,-9.02135181427002,-2.011129379272461,-0.19153612852096558
1.3809082508087158,-9.155426979064941,-2.126051187515259,-0.2298433631658554
1.3830740451812744,-9.232041358947754,-2.212242364883423,-0.15322890877723694
1.3852474689483643,-9.155426979064941,-2.250549554824829,0.019153613597154617
1.3874125480651855,-9.097966194152832,-2.298433542251587,0.0
1.3895812034606934,-9.107542991638184,-2.31758713722229,-0.028730420395731926
1.3917481899261475,-9.165003776550293,-2.38462495803833,0.06703764945268631
1.3928415775299072,-9.155426979064941,-2.403778553009033,0.09576806426048279
1.395014762878418,-9.136273384094238,-2.451662540435791,0.019153613597154617
1.3971819877624512,-9.174580574035645,-2.5282769203186035,0.07661445438861847
1.3993537425994873,-9.375694274902344,-2.5665841102600098,0.06703764945268631
1.4015207290649414,-9.452308654785156,-2.6623523235321045,-0.08619125932455063
1.4026150703430176,-9.53849983215332,-2.786850690841675,-0.12449848651885986
1.4047856330871582,-9.643844604492188,-2.8155810832977295,-0.047884032130241394
1.4069550037384033,-9.548076629638672,-2.8443117141723633,0.07661445438861847
1.409120798110962,-9.53849983215332,-2.853888511657715,0.10534487664699554
1.4112913608551025,-9.519346237182617,-2.8347349166870117,0.19153612852096558
1.4123866558074951,-9.490615844726562,-2.8347349166870117,0.3064578175544739
1.4145550727844238,-9.481039047241211,-2.873042106628418,0.28730419278144836
1.4167206287384033,-9.481039047241211,-2.9017724990844727,0.33518823981285095
1.418886423110962,-9.528923034667969,-2.873042106628418,0.45010992884635925
1.421058177947998,-9.605537414550781,-2.911349296569824,0.45010992884635925
1.4232280254364014,-9.653421401977539,-2.9975404739379883,0.2298433631658554
1.424323558807373,-9.816226959228516,-3.0837318897247314,0.20111294090747833
1.4264979362487793,-9.940725326538086,-3.1316158771514893,0.2298433631658554
1.4286634922027588,-9.931148529052734,-3.2369606494903564,0.3256114423274994
1.4308366775512695,-9.835380554199219,-3.2561142444610596,0.40222588181495667
1.4319322109222412,-9.77791976928711,-3.227383852005005,0.5746083855628967
1.434096097946167,-9.77791976928711,-3.2369606494903564,0.5937620401382446
1.4362659454345703,-9.730035781860352,-3.2752678394317627,0.5650315880775452
1.4384307861328125,-9.835380554199219,-3.2561142444610596,0.6512228846549988
1.4406044483184814,-9.787496566772461,-3.246537446975708,0.6320692300796509
1.442779302597046,-9.749189376831055,-3.2752678394317627,0.5363011956214905
1.4438745975494385,-9.816226959228516,-3.399766445159912,0.5171475410461426
1.446047067642212,-9.883264541625977,-3.4380736351013184,0.545877993106842
1.4482145309448242,-9.979032516479492,-3.5051112174987793,0.5554547905921936
1.450390100479126,-9.96945571899414,-3.5242648124694824,0.4213795065879822
1.4514849185943604,-9.940725326538086,-3.5242648124694824,0.5363011956214905
1.4536519050598145,-9.950302124023438,-3.514688014984131,0.5363011956214905
1.4558234214782715,-9.921571731567383,-3.5434184074401855,0.507570743560791
1.45798921585083,-9.90241813659668,-3.514688014984131,0.5937620401382446
1.4601550102233887,-9.950302124023438,-3.5625722408294678,0.45010992884635925
1.4623234272003174,-9.979032516479492,-3.5913026332855225,0.35434186458587646
1.463418960571289,-9.921571731567383,-3.600879430770874,0.5363011956214905
1.4655861854553223,-9.911994934082031,-3.6104562282562256,0.49799394607543945
1.4677696228027344,-9.921571731567383,-3.648763418197632,0.5267243981361389
1.4699416160583496,-9.959878921508789,-3.6774938106536865,0.5171475410461426
1.472116231918335,-10.036493301391602,-3.7253777980804443,0.4692635238170624
1.4732115268707275,-9.979032516479492,-3.7158010005950928,0.4884171485900879
1.4753789901733398,-9.979032516479492,-3.6774938106536865,0.4405331015586853
1.4775493144989014,-9.988609313964844,-3.687070608139038,0.5554547905921936
1.4797155857086182,-9.959878921508789,-3.648763418197632,0.5650315880775452
1.4818823337554932,-9.998186111450195,-3.667917013168335,0.4118026793003082
1.4829771518707275,-10.007762908935547,-3.6391866207122803,0.43095630407333374
1.4851405620574951,-9.911994934082031,-3.6391866207122803,0.545877993106842
1.4873602390289307,-9.854534149169922,-3.6391866207122803,0.5841852426528931
1.4895269870758057,-9.835380554199219,-3.6104562282562256,0.7086837291717529
1.4917042255401611,-9.816226959228516,-3.581725835800171,0.6033388376235962
1.492802381515503,-9.883264541625977,-3.6104562282562256,0.545877993106842
1.4949700832366943,-9.96945571899414,-3.600879430770874,0.5650315880775452
1.497140884399414,-9.988609313964844,-3.6391866207122803,0.45010992884635925
1.4993085861206055,-10.007762908935547,-3.5913026332855225,0.49799394607543945
1.5014724731445312,-9.959878921508789,-3.552995204925537,0.507570743560791
1.5025722980499268,-9.979032516479492,-3.5434184074401855,0.47884035110473633
1.5047383308410645,-9.921571731567383,-3.581725835800171,0.6703764796257019
1.5069084167480469,-9.816226959228516,-3.5625722408294678,0.7565677165985107
1.509073257446289,-9.682151794433594,-3.485957622528076,0.9193734526634216
1.5112404823303223,-9.615114212036133,-3.4380736351013184,1.0342950820922852
1.5134127140045166,-9.653421401977539,-3.428496837615967,0.8331822156906128
1.5145065784454346,-9.787496566772461,-3.3423056602478027,0.7374141216278076
1.516672134399414,-9.950302124023438,-3.380612850189209,0.5171475410461426
1.518845796585083,-9.940725326538086,-3.44765043258667,0.4118026793003082
1.521010160446167,-9.940725326538086,-3.4380736351013184,0.4405331015586853
1.5221290588378906,-9.883264541625977,-3.4189200401306152,0.43095630407333374
1.5242996215820312,-9.835380554199219,-3.485957622528076,0.507570743560791
1.5264627933502197,-9.787496566772461,-3.4380736351013184,0.6703764796257019
1.528641939163208,-9.720458984375,-3.3423056602478027,0.727837324142456
1.530806541442871,-9.615114212036133,-3.2561142444610596,0.7852981686592102
1.531900405883789,-9.519346237182617,-3.160346269607544,0.7469909191131592
1.5340707302093506,-9.53849983215332,-3.1220390796661377,0.6703764796257019
1.5362393856048584,-9.672574996948242,-3.141192674636841,0.40222588181495667
1.5384101867675781,-9.787496566772461,-3.2369606494903564,0.2106897532939911
1.5405800342559814,-9.864110946655273,-3.265691041946411,0.2585737705230713
1.5427629947662354,-9.854534149169922,-3.2369606494903564,0.33518823981285095
1.5438611507415771,-9.768342971801758,-3.227383852005005,0.3256114423274994
1.5460247993469238,-9.691728591918945,-3.1890766620635986,0.47884035110473633
1.5481975078582764,-9.643844604492188,-3.1507694721221924,0.5363011956214905
1.5503616333007812,-9.509769439697266,-3.07415509223938,0.6512228846549988
1.5525283813476562,-9.346963882446289,-3.0166940689086914,0.8044517636299133
1.5536253452301025,-9.289502143859863,-2.853888511657715,0.8236053586006165
1.5557935237884521,-9.299078941345215,-2.82515811920166,0.7182605266571045
1.5579931735992432,-9.500192642211914,-2.8443117141723633,0.47884035110473633
1.5601637363433838,-9.66299819946289,-2.920926094055176,0.3256114423274994
1.5623300075531006,-9.701305389404297,-2.9305028915405273,0.4213795065879822
1.5634310245513916,-9.59596061706543,-2.9975404739379883,0.4118026793003082
1.5656001567840576,-9.490615844726562,-2.940079689025879,0.6607996821403503
1.5677642822265625,-9.423578262329102,-2.9305028915405273,0.6991068720817566
1.569934368133545,-9.385271072387695,-2.873042106628418,0.727837324142456
1.57210111618042,-9.346963882446289,-2.719813108444214,0.7948749661445618
1.5731937885284424,-9.289502143859863,-2.6431987285614014,0.7757213711738586
1.5753629207611084,-9.241618156433105,-2.585737943649292,0.5841852426528931
1.5775279998779297,-9.260771751403809,-2.5282769203186035,0.5363011956214905
1.5796968936920166,-9.35654067993164,-2.5761611461639404,0.38307225704193115
1.5818631649017334,-9.423578262329102,-2.652775526046753,0.43095630407333374
1.5829601287841797,-9.509769439697266,-2.806004285812378,0.3926490843296051
1.5851340293884277,-9.394847869873047,-2.8155810832977295,0.5171475410461426
1.5873022079467773,-9.394847869873047,-2.7676970958709717,0.6320692300796509
1.5894713401794434,-9.318233489990234,-2.671929121017456,0.545877993106842
1.5916380882263184,-9.279925346374512,-2.5761611461639404,0.545877993106842
1.5927307605743408,-9.337387084960938,-2.518700122833252,0.47884035110473633
1.5949041843414307,-9.27034854888916,-2.4803929328918457,0.3447650372982025
1.5970675945281982,-9.184157371520996,-2.3558945655822754,0.3256114423274994
1.5992350578308105,-9.126696586608887,-2.3558945655822754,0.4692635238170624
1.6013994216918945,-9.165003776550293,-2.4420857429504395,0.5937620401382446
1.602492094039917,-9.2033109664917,-2.4803929328918457,0.5363011956214905
1.6046669483184814,-9.308655738830566,-2.4899697303771973,0.45010992884635925
1.6068358421325684,-9.279925346374512,-2.5091233253479004,0.4692635238170624
1.6089997291564941,-9.260771751403809,-2.4612393379211426,0.4596867263317108
1.6111741065979004,-9.193734169006348,-2.38462495803833,0.4884171485900879
1.6133394241333008,-9.241618156433105,-2.346317768096924,0.4692635238170624
1.6144382953643799,-9.155426979064941,-2.298433542251587,0.3734954595565796
1.616605281829834,-9.193734169006348,-2.231395959854126,0.26815059781074524
1.6187732219696045,-9.155426979064941,-2.1930887699127197,0.40222588181495667
1.620940923690796,-9.02135181427002,-2.164358377456665,0.6129156351089478
1.6220331192016602,-8.935160636901855,-2.2026655673980713,0.7469909191131592
1.6241989135742188,-9.002198219299316,-2.2409727573394775,0.8523358106613159
1.6263670921325684,-9.050082206726074,-2.212242364883423,0.6703764796257019
1.6285343170166016,-9.107542991638184,-2.2218191623687744,0.4884171485900879
1.6307055950164795,-9.107542991638184,-2.1739351749420166,0.4213795065879822
1.6328742504119873,-9.117119789123535,-2.126051187515259,0.5363011956214905
1.6339685916900635,-9.097966194152832,-2.0590133666992188,0.47884035110473633
1.6361415386199951,-9.059659004211426,-2.0398597717285156,0.4118026793003082
1.6383047103881836,-9.097966194152832,-2.030282974243164,0.3926490843296051
1.6404759883880615,-9.069235801696777,-2.030282974243164,0.4692635238170624
1.6426398754119873,-8.96389102935791,-2.049436569213867,0.5363011956214905
1.643733263015747,-8.820239067077637,-1.9728221893310547,0.6799532771110535
1.6459012031555176,-8.762778282165527,-1.9728221893310547,0.8427590131759644
1.6504433155059814,-8.772355079650879,-2.011129379272461,0.727837324142456
1.6515741348266602,-8.887276649475098,-1.9919757843017578,0.4884171485900879
1.6526758670806885,-9.040505409240723,-1.9919757843017578,0.3064578175544739
1.653773307800293,-9.165003776550293,-1.9823989868164062,0.181959331035614
1.6559538841247559,-9.059659004211426,-1.9823989868164062,0.13407529890537262
1.6581244468688965,-9.059659004211426,-1.9536685943603516,0.20111294090747833
1.6603245735168457,-9.002198219299316,-2.011129379272461,0.3734954595565796
1.6614203453063965,-8.935160636901855,-2.0590133666992188,0.4118026793003082
1.6635923385620117,-8.83939266204834,-1.9919757843017578,0.5267243981361389
1.6657679080963135,-8.762778282165527,-1.9249382019042969,0.6799532771110535
1.667940378189087,-8.667010307312012,-1.8483237028121948,0.7469909191131592
1.670109510421753,-8.59997272491455,-1.8195933103561401,0.727837324142456
1.6712090969085693,-8.734047889709473,-1.800439715385437,0.5554547905921936
1.6733767986297607,-8.9064302444458,-1.8100165128707886,0.3447650372982025
1.6755447387695312,-9.002198219299316,-1.8579005002975464,0.06703764945268631
1.6777174472808838,-9.040505409240723,-1.9153614044189453,0.14365209639072418
1.67989182472229,-8.983044624328613,-1.886630892753601,0.33518823981285095
1.6809954643249512,-8.877699851989746,-1.867477297782898,0.507570743560791
1.6831634044647217,-8.801085472106934,-1.9057846069335938,0.5267243981361389
1.6853301525115967,-8.78193187713623,-1.8483237028121948,0.6129156351089478
1.6875052452087402,-8.734047889709473,-1.7812861204147339,0.689530074596405
1.6896700859069824,-8.619126319885254,-1.6855180263519287,0.6129156351089478
1.6907756328582764,-8.5903959274292,-1.6663644313812256,0.5554547905921936
1.6929492950439453,-8.5903959274292,-1.6376339197158813,0.6512228846549988
1.6951167583465576,-8.686163902282715,-1.6950948238372803,0.4213795065879822
1.6972887516021729,-8.801085472106934,-1.7812861204147339,0.31603461503982544
1.6994578838348389,-8.935160636901855,-1.8387469053268433,0.31603461503982544
1.7016308307647705,-8.868123054504395,-1.867477297782898,0.49799394607543945
1.7027273178100586,-8.772355079650879,-1.886630892753601,0.5171475410461426
1.704906702041626,-8.647856712341309,-1.8387469053268433,0.6512228846549988
1.7070789337158203,-8.619126319885254,-1.7334020137786865,0.7565677165985107
1.7092483043670654,-8.523358345031738,-1.6950948238372803,0.6991068720817566
1.7103445529937744,-8.523358345031738,-1.6089035272598267,0.5841852426528931
1.7125205993652344,-8.552088737487793,-1.599326729774475,0.5554547905921936
1.7146868705749512,-8.494627952575684,-1.5897499322891235,0.5746083855628967
1.716860055923462,-8.53293514251709,-1.647210717201233,0.4884171485900879
1.7190282344818115,-8.619126319885254,-1.723825216293335,0.31603461503982544
1.720123291015625,-8.724471092224121,-1.7717092037200928,0.363918662071228
1.7222974300384521,-8.762778282165527,-1.8579005002975464,0.3064578175544739
1.7244670391082764,-8.676587104797363,-1.800439715385437,0.2777273952960968
1.7266333103179932,-8.695740699768066,-1.7908629179000854,0.33518823981285095
1.7288072109222412,-8.542511940002441,-1.7525556087493896,0.4692635238170624
1.729902744293213,-8.465897560119629,-1.647210717201233,0.4405331015586853
1.7320752143859863,-8.465897560119629,-1.647210717201233,0.4118026793003082
1.734241008758545,-8.456320762634277,-1.6184803247451782,0.5267243981361389
1.7364060878753662,-8.465897560119629,-1.6184803247451782,0.545877993106842
1.7385759353637695,-8.40843677520752,-1.6280571222305298,0.3447650372982025
1.74074387550354,-8.465897560119629,-1.6950948238372803,0.4118026793003082
1.7418384552001953,-8.53293514251709,-1.7142484188079834,0.5554547905921936
1.7440192699432373,-8.456320762634277,-1.7621324062347412,0.5267243981361389
1.7461888790130615,-8.418013572692871,-1.7142484188079834,0.4118026793003082
1.748363971710205,-8.456320762634277,-1.6663644313812256,0.4405331015586853
1.7505335807800293,-8.370129585266113,-1.6376339197158813,0.49799394607543945
1.7516300678253174,-8.283937454223633,-1.5610195398330688,0.4884171485900879
1.7538020610809326,-8.322244644165039,-1.522712230682373,0.4596867263317108
1.7559714317321777,-8.322244644165039,-1.5418659448623657,0.5841852426528931
1.7581422328948975,-8.274360656738281,-1.5322890281677246,0.5554547905921936
1.760310173034668,-8.303091049194336,-1.5897499322891235,0.40222588181495667
1.7614054679870605,-8.35097599029541,-1.6184803247451782,0.4213795065879822
1.763577938079834,-8.389283180236816,-1.656787633895874,0.4692635238170624
1.7657439708709717,-8.303091049194336,-1.6759412288665771,0.5937620401382446
1.7679214477539062,-8.188169479370117,-1.6089035272598267,0.5937620401382446
1.770089864730835,-8.216899871826172,-1.580173134803772,0.6320692300796509
1.7722594738006592,-8.197746276855469,-1.5514427423477173,0.6512228846549988
1.7733592987060547,-8.188169479370117,-1.5514427423477173,0.4596867263317108
1.7755329608917236,-8.159439086914062,-1.5131354331970215,0.3734954595565796
1.7777001857757568,-8.20732307434082,-1.5322890281677246,0.4884171485900879
1.7798840999603271,-8.178592681884766,-1.5322890281677246,0.4884171485900879
1.7809791564941406,-8.197746276855469,-1.5705963373184204,0.4596867263317108
1.7831487655639648,-8.236053466796875,-1.6280571222305298,0.4405331015586853
1.7853152751922607,-8.226476669311523,-1.647210717201233,0.4596867263317108
1.7874836921691895,-8.197746276855469,-1.6089035272598267,0.5746083855628967
1.789656162261963,-8.092401504516602,-1.5610195398330688,0.507570743560791
1.7907686233520508,-7.996633529663086,-1.5418659448623657,0.5171475410461426
1.792938470840454,-8.073247909545898,-1.4939818382263184,0.5554547905921936
1.7951147556304932,-8.015787124633789,-1.4748282432556152,0.5554547905921936
1.7972843647003174,-8.054094314575195,-1.5514427423477173,0.507570743560791
1.7994604110717773,-8.101978302001953,-1.5705963373184204,0.4213795065879822
1.8005547523498535,-8.14028549194336,-1.5705963373184204,0.35434186458587646
1.802720546722412,-8.149862289428711,-1.6089035272598267,0.4596867263317108
1.8048906326293945,-8.159439086914062,-1.6759412288665771,0.4692635238170624
1.8070573806762695,-8.121131896972656,-1.656787633895874,0.4884171485900879
1.8092281818389893,-8.111555099487305,-1.647210717201233,0.5267243981361389
1.8103222846984863,-8.006210327148438,-1.6184803247451782,0.5937620401382446
1.8124957084655762,-7.996633529663086,-1.5897499322891235,0.545877993106842
1.8146722316741943,-7.891288757324219,-1.5705963373184204,0.689530074596405
1.8168413639068604,-7.929595947265625,-1.50355863571167,0.6416460275650024
1.819016695022583,-7.891288757324219,-1.5514427423477173,0.7374141216278076
1.8211867809295654,-7.891288757324219,-1.5610195398330688,0.6512228846549988
1.8222813606262207,-7.90086555480957,-1.6376339197158813,0.727837324142456
1.8244531154632568,-8.006210327148438,-1.6950948238372803,0.6607996821403503
1.8266217708587646,-8.054094314575195,-1.7142484188079834,0.5363011956214905
1.8287923336029053,-8.111555099487305,-1.7334020137786865,0.49799394607543945
1.8298864364624023,-8.121131896972656,-1.6663644313812256,0.45010992884635925
1.8320538997650146,-8.015787124633789,-1.6663644313812256,0.5650315880775452
1.8342227935791016,-7.929595947265625,-1.647210717201233,0.6320692300796509
1.8363919258117676,-7.862558364868164,-1.6663644313812256,0.6512228846549988
1.838559865951538,-7.881711959838867,-1.656787633895874,0.7661445140838623
1.8407340049743652,-7.843404769897461,-1.6663644313812256,0.7852981686592102
1.8418288230895996,-7.795520782470703,-1.6759412288665771,0.8331822156906128
1.8439967632293701,-7.8529815673828125,-1.7046716213226318,0.8236053586006165
1.8461766242980957,-7.90086555480957,-1.7334020137786865,0.7086837291717529
1.84834623336792,-7.90086555480957,-1.7717092037200928,0.7374141216278076
1.8505182266235352,-7.977479934692383,-1.8291701078414917,0.6129156351089478
1.851611614227295,-8.073247909545898,-1.8387469053268433,0.5171475410461426
1.853776454925537,-8.092401504516602,-1.8962076902389526,0.507570743560791
1.8559486865997314,-7.948749542236328,-1.8579005002975464,0.689530074596405
1.8581135272979736,-7.862558364868164,-1.8579005002975464,0.7086837291717529
1.8602871894836426,-7.795520782470703,-1.8195933103561401,0.8619126081466675
1.8613836765289307,-7.805097579956055,-1.7908629179000854,0.8140285611152649
1.8635525703430176,-7.795520782470703,-1.8195933103561401,0.8810662031173706
1.8657267093658447,-7.8529815673828125,-1.867477297782898,0.727837324142456
1.8678951263427734,-7.939172744750977,-1.9153614044189453,0.6607996821403503
1.870065689086914,-7.967903137207031,-1.886630892753601,0.6703764796257019
1.871161699295044,-7.977479934692383,-1.9632453918457031,0.6607996821403503
1.873328685760498,-7.948749542236328,-2.0398597717285156,0.6224924325942993
1.8754982948303223,-7.987056732177734,-2.0685901641845703,0.6703764796257019
1.8776638507843018,-7.967903137207031,-2.049436569213867,0.7948749661445618
1.8798468112945557,-7.939172744750977,-2.0398597717285156,0.7182605266571045
1.8809430599212646,-7.948749542236328,-2.0015525817871094,0.7374141216278076
1.8831138610839844,-7.977479934692383,-1.9919757843017578,0.7182605266571045
1.8852875232696533,-7.910442352294922,-2.030282974243164,0.8236053586006165
1.8874564170837402,-7.977479934692383,-2.0590133666992188,0.7086837291717529
1.8896234035491943,-7.987056732177734,-2.1164743900299072,0.727837324142456
1.890723466873169,-8.073247909545898,-2.097320795059204,0.7757213711738586
1.8928930759429932,-8.08282470703125,-2.145204782485962,0.8331822156906128
1.895066261291504,-8.08282470703125,-2.1739351749420166,0.7852981686592102
1.8972325325012207,-8.08282470703125,-2.1739351749420166,0.9289502501487732
1.8993988037109375,-8.044517517089844,-2.1547815799713135,1.0630255937576294
1.9004967212677002,-7.939172744750977,-2.145204782485962,1.091755986213684
1.902662754058838,-7.95832633972168,-2.097320795059204,1.0630255937576294
1.904829978942871,-7.996633529663086,-2.1356279850006104,1.1204863786697388
1.907003402709961,-8.101978302001953,-2.078166961669922,1.0247182846069336
1.9091696739196777,-8.054094314575195,-2.164358377456665,1.0630255937576294
1.9113447666168213,-8.08282470703125,-2.145204782485962,1.0630255937576294
1.9124431610107422,-8.111555099487305,-2.183511972427368,1.1875240802764893
1.914612054824829,-8.14028549194336,-2.2218191623687744,1.1492167711257935
1.9167866706848145,-8.178592681884766,-2.3080103397369385,1.0438719987869263
1.9189553260803223,-8.226476669311523,-2.3080103397369385,1.0630255937576294
1.9200491905212402,-8.226476669311523,-2.3271639347076416,1.091755986213684
1.9222185611724854,-8.111555099487305,-2.2601263523101807,1.1492167711257935
1.9243841171264648,-8.092401504516602,-2.2409727573394775,1.139639973640442
1.9265515804290771,-8.044517517089844,-2.279279947280884,1.1971008777618408
1.9287185668945312,-8.101978302001953,-2.279279947280884,1.1971008777618408
1.930922508239746,-8.149862289428711,-2.3367409706115723,1.1492167711257935
1.9320223331451416,-8.169015884399414,-2.3942017555236816,1.072602391242981
1.934190273284912,-8.26478385925293,-2.4133553504943848,1.0534487962722778
1.9363656044006348,-8.283937454223633,-2.432508945465088,1.0342950820922852
1.938532829284668,-8.312667846679688,-2.4612393379211426,0.8044517636299133
1.9396345615386963,-8.40843677520752,-2.4899697303771973,0.8236053586006165
1.9418048858642578,-8.370129585266113,-2.451662540435791,0.9289502501487732
1.9439723491668701,-8.312667846679688,-2.451662540435791,0.9864110946655273
1.9461381435394287,-8.255207061767578,-2.4229321479797363,1.0630255937576294
1.9483075141906738,-8.216899871826172,-2.4133553504943848,1.216254472732544
1.950472354888916,-8.169015884399414,-2.4133553504943848,1.3503297567367554
1.9515740871429443,-8.188169479370117,-2.4133553504943848,1.292868971824646
1.9537415504455566,-8.188169479370117,-2.451662540435791,1.1492167711257935
1.9559125900268555,-8.418013572692871,-2.499546527862549,1.091755986213684
1.9580848217010498,-8.437167167663574,-2.470816135406494,1.1109095811843872
1.9602549076080322,-8.504204750061035,-2.557007312774658,1.0055646896362305
1.9613497257232666,-8.523358345031738,-2.537853717803955,1.0630255937576294
1.963524341583252,-8.542511940002441,-2.557007312774658,1.216254472732544
1.9656920433044434,-8.427590370178223,-2.5474305152893066,1.3120225667953491
1.9678666591644287,-8.35097599029541,-2.518700122833252,1.3503297567367554
1.9700324535369873,-8.312667846679688,-2.451662540435791,1.455674648284912
1.9711265563964844,-8.303091049194336,-2.346317768096924,1.6280571222305298
1.973297357559204,-8.274360656738281,-2.3558945655822754,1.5610195398330688
1.9754645824432373,-8.322244644165039,-2.3942017555236816,1.522712230682373
1.9776363372802734,-8.47547435760498,-2.4133553504943848,1.4652514457702637
1.9798073768615723,-8.542511940002441,-2.451662540435791,1.3215993642807007
1.980903148651123,-8.695740699768066,-2.5091233253479004,1.1971008777618408
1.9830753803253174,-8.609549522399902,-2.5761611461639404,1.2449848651885986
1.9852409362792969,-8.724471092224121,-2.5665841102600098,1.359906554222107
1.9874153137207031,-8.628703117370605,-2.5282769203186035,1.3982137441635132
1.9895820617675781,-8.580819129943848,-2.4612393379211426,1.4173674583435059
1.9906749725341797,-8.571242332458496,-2.4612393379211426,1.4460978507995605
1.992844820022583,-8.59997272491455,-2.4133553504943848,1.522712230682373
1.9950127601623535,-8.523358345031738,-2.403778553009033,1.5131354331970215
1.997178077697754,-8.504204750061035,-2.403778553009033,1.4939818382263184
1.9993507862091064,-8.571242332458496,-2.4420857429504395,1.5897499322891235
2.0015170574188232,-8.580819129943848,-2.470816135406494,1.6280571222305298
2.00264835357666,-8.705317497253418,-2.537853717803955,1.3982137441635132
2.0048184394836426,-8.868123054504395,-2.557007312774658,1.2832920551300049
2.0069849491119385,-8.916007041931152,-2.557007312774658,1.3407529592514038
2.0091559886932373,-8.868123054504395,-2.5474305152893066,1.436521053314209
2.010249376296997,-8.71489429473877,-2.4899697303771973,1.4748282432556152
2.0124197006225586,-8.667010307312012,-2.4133553504943848,1.5418659448623657
2.0145928859710693,-8.609549522399902,-2.403778553009033,1.6950948238372803
2.0167596340179443,-8.59997272491455,-2.3558945655822754,1.7142484188079834
2.0189292430877686,-8.571242332458496,-2.3750481605529785,1.6855180263519287
2.0210957527160645,-8.705317497253418,-2.3271639347076416,1.6950948238372803
2.0221893787384033,-8.695740699768066,-2.365471363067627,1.7142484188079834
2.0243659019470215,-8.734047889709473,-2.4133553504943848,1.5322890281677246
2.0265328884124756,-8.848969459533691,-2.4612393379211426,1.5514427423477173
2.02870774269104,-8.9064302444458,-2.4420857429504395,1.656787633895874
2.030874252319336,-8.868123054504395,-2.451662540435791,1.6280571222305298
2.031968116760254,-8.762778282165527,-2.38462495803833,1.5897499322891235
2.0341415405273438,-8.762778282165527,-2.31758713722229,1.6950948238372803
2.036308765411377,-8.667010307312012,-2.2601263523101807,1.8387469053268433
2.0384767055511475,-8.628703117370605,-2.2218191623687744,1.7334020137786865
2.0406434535980225,-8.619126319885254,-2.250549554824829,1.723825216293335
2.0417377948760986,-8.772355079650879,-2.1930887699127197,1.7334020137786865
2.0439085960388184,-8.791508674621582,-2.2218191623687744,1.6280571222305298
2.0460760593414307,-8.829815864562988,-2.2601263523101807,1.4460978507995605
2.048243284225464,-8.877699851989746,-2.279279947280884,1.6280571222305298
2.0504143238067627,-8.820239067077637,-2.2888567447662354,1.800439715385437
2.051509141921997,-8.791508674621582,-2.2601263523101807,1.7334020137786865
2.053676128387451,-8.724471092224121,-2.2026655673980713,1.6663644313812256
2.055852174758911,-8.801085472106934,-2.183511972427368,1.6855180263519287
2.0580196380615234,-8.743624687194824,-2.097320795059204,1.656787633895874
2.060189723968506,-8.676587104797363,-2.0685901641845703,1.6759412288665771
2.0612823963165283,-8.705317497253418,-2.078166961669922,1.6280571222305298
2.063448905944824,-8.78193187713623,-2.097320795059204,1.7525556087493896
2.0656180381774902,-8.810662269592285,-2.097320795059204,1.6950948238372803
2.0677831172943115,-8.78193187713623,-2.1547815799713135,1.6855180263519287
2.0699572563171387,-8.848969459533691,-2.1739351749420166,1.723825216293335
2.072127342224121,-8.762778282165527,-2.126051187515259,1.9536685943603516
2.0732223987579346,-8.609549522399902,-2.0590133666992188,1.9728221893310547
2.0753979682922363,-8.638279914855957,-2.030282974243164,1.944091796875
2.0775625705718994,-8.647856712341309,-1.9632453918457031,1.9153614044189453
2.0797345638275146,-8.724471092224121,-1.944091796875,1.8195933103561401
2.0819013118743896,-8.71489429473877,-1.9728221893310547,1.7621324062347412
2.0829944610595703,-8.686163902282715,-1.9823989868164062,1.8962076902389526
2.0851633548736572,-8.724471092224121,-1.944091796875,1.9153614044189453
2.087329387664795,-8.743624687194824,-1.9823989868164062,1.6855180263519287
2.089493989944458,-8.83939266204834,-2.049436569213867,1.647210717201233
2.0916686058044434,-8.83939266204834,-2.0590133666992188,1.7142484188079834
2.0927658081054688,-8.78193187713623,-2.0590133666992188,1.800439715385437
2.094942092895508,-8.619126319885254,-1.9823989868164062,1.867477297782898
2.0971105098724365,-8.552088737487793,-1.9536685943603516,1.9728221893310547
2.099280834197998,-8.53293514251709,-1.9153614044189453,1.9249382019042969
2.1014504432678223,-8.542511940002441,-1.8962076902389526,1.8100165128707886
2.1025452613830566,-8.705317497253418,-1.9345149993896484,1.7046716213226318
2.1047143936157227,-8.743624687194824,-1.9345149993896484,1.723825216293335
2.1068928241729736,-8.83939266204834,-1.9919757843017578,1.5131354331970215
2.109060287475586,-8.820239067077637,-2.0015525817871094,1.4652514457702637
2.111231803894043,-8.925583839416504,-1.9919757843017578,1.50355863571167
2.1123263835906982,-8.89685344696045,-2.049436569213867,1.6184803247451782
2.114492654800415,-8.772355079650879,-2.078166961669922,1.656787633895874
2.1166694164276123,-8.753201484680176,-1.9153614044189453,1.7812861204147339
2.1188414096832275,-8.561665534973145,-1.8387469053268433,1.9249382019042969
2.121014356613159,-8.446743965148926,-1.7334020137786865,2.030282974243164
2.122110605239868,-8.485051155090332,-1.7525556087493896,2.0685901641845703
2.1242778301239014,-8.571242332458496,-1.7717092037200928,2.011129379272461
2.126451015472412,-8.724471092224121,-1.7812861204147339,1.867477297782898
2.128622531890869,-8.801085472106934,-1.8579005002975464,1.6663644313812256
2.1307919025421143,-8.858546257019043,-1.9153614044189453,1.6950948238372803
2.1318864822387695,-8.83939266204834,-1.9823989868164062,1.8962076902389526
2.13405179977417,-8.762778282165527,-1.9823989868164062,1.9728221893310547
2.136223077774048,-8.667010307312012,-1.9345149993896484,2.011129379272461
2.1435346603393555,-8.619126319885254,-1.867477297782898,2.1164743900299072
2.144627332687378,-8.561665534973145,-1.7908629179000854,2.030282974243164
2.1457300186157227,-8.456320762634277,-1.7908629179000854,2.097320795059204
2.14676570892334,-8.446743965148926,-1.6855180263519287,2.231395959854126
2.147840976715088,-8.485051155090332,-1.7334020137786865,2.1739351749420166
2.1489181518554688,-8.647856712341309,-1.7812861204147339,1.8387469053268433
2.1499969959259033,-8.810662269592285,-1.886630892753601,1.7812861204147339
2.1521406173706055,-8.944737434387207,-1.9536685943603516,1.8100165128707886
2.1543688774108887,-8.954314231872559,-2.030282974243164,1.7908629179000854
2.15547776222229,-8.829815864562988,-2.0590133666992188,1.886630892753601
2.1576502323150635,-8.753201484680176,-1.9345149993896484,1.9728221893310547
2.1598074436187744,-8.667010307312012,-1.8770540952682495,2.0590133666992188
2.161972999572754,-8.552088737487793,-1.7908629179000854,2.0398597717285156
2.1641392707824707,-8.561665534973145,-1.7525556087493896,2.1068975925445557
2.165231943130493,-8.513781547546387,-1.7046716213226318,2.2218191623687744
2.167412281036377,-8.504204750061035,-1.7142484188079834,2.049436569213867
2.1695806980133057,-8.65743350982666,-1.7717092037200928,1.944091796875
2.1717586517333984,-8.772355079650879,-1.886630892753601,1.8770540952682495
2.1739275455474854,-8.916007041931152,-2.030282974243164,1.7525556087493896
2.1750240325927734,-8.89685344696045,-2.1068975925445557,1.7812861204147339
2.1771926879882812,-8.877699851989746,-2.0877439975738525,1.8962076902389526
2.1793596744537354,-8.743624687194824,-2.011129379272461,2.0685901641845703
2.1815569400787354,-8.647856712341309,-1.9249382019042969,2.1068975925445557
2.183727741241455,-8.638279914855957,-1.8483237028121948,2.126051187515259
2.185896396636963,-8.619126319885254,-1.8387469053268433,2.183511972427368
2.187000036239624,-8.628703117370605,-1.8387469053268433,2.097320795059204
2.189169406890869,-8.552088737487793,-1.867477297782898,2.078166961669922
2.1913397312164307,-8.628703117370605,-1.867477297782898,2.126051187515259
2.193509578704834,-8.647856712341309,-1.9823989868164062,2.231395959854126
2.1946017742156982,-8.724471092224121,-2.097320795059204,2.2409727573394775
2.1967899799346924,-8.83939266204834,-2.126051187515259,2.145204782485962
2.1989681720733643,-8.877699851989746,-2.1068975925445557,2.049436569213867
2.2011349201202393,-8.801085472106934,-2.0207061767578125,1.9153614044189453
2.2033116817474365,-8.705317497253418,-2.030282974243164,1.9632453918457031
2.2044079303741455,-8.743624687194824,-1.9345149993896484,2.0590133666992188
2.2065746784210205,-8.791508674621582,-1.9536685943603516,2.0207061767578125
2.208751916885376,-8.734047889709473,-1.9919757843017578,1.9632453918457031
2.2109241485595703,-8.810662269592285,-2.0015525817871094,2.011129379272461
2.2130987644195557,-8.705317497253418,-2.049436569213867,2.231395959854126
2.2152702808380127,-8.676587104797363,-2.1164743900299072,2.298433542251587
2.2163662910461426,-8.59997272491455,-2.1356279850006104,2.3558945655822754
2.218541383743286,-8.667010307312012,-2.097320795059204,2.4133553504943848
2.220712900161743,-8.743624687194824,-2.1164743900299072,2.231395959854126
2.2228872776031494,-8.734047889709473,-2.0877439975738525,2.1068975925445557
2.2239818572998047,-8.810662269592285,-2.049436569213867,2.126051187515259
2.226149320602417,-8.71489429473877,-2.0877439975738525,2.250549554824829
2.2283220291137695,-8.734047889709473,-2.078166961669922,2.1164743900299072
2.230490207672119,-8.753201484680176,-2.078166961669922,2.1547815799713135
2.232668161392212,-8.829815864562988,-2.078166961669922,2.2601263523101807
2.2348392009735107,-8.734047889709473,-2.1547815799713135,2.2601263523101807
2.235936164855957,-8.676587104797363,-2.1547815799713135,2.346317768096924
2.2381112575531006,-8.619126319885254,-2.097320795059204,2.4612393379211426
2.2402796745300293,-8.552088737487793,-2.0590133666992188,2.451662540435791
2.2424490451812744,-8.513781547546387,-2.0207061767578125,2.3080103397369385
2.2446234226226807,-8.619126319885254,-2.1164743900299072,2.279279947280884
2.2457220554351807,-8.753201484680176,-2.0685901641845703,2.2218191623687744
2.247891664505005,-8.772355079650879,-2.1547815799713135,2.1739351749420166
2.2500627040863037,-8.753201484680176,-2.164358377456665,2.0685901641845703
2.2522308826446533,-8.753201484680176,-2.231395959854126,2.126051187515259
2.2544054985046387,-8.78193187713623,-2.2697031497955322,2.250549554824829
2.255502462387085,-8.753201484680176,-2.2888567447662354,2.2218191623687744
2.2576706409454346,-8.609549522399902,-2.250549554824829,2.346317768096924
2.259849786758423,-8.542511940002441,-2.2218191623687744,2.499546527862549
2.262018918991089,-8.437167167663574,-2.126051187515259,2.5474305152893066
2.264193296432495,-8.322244644165039,-2.0877439975738525,2.4612393379211426
2.2652924060821533,-8.494627952575684,-2.097320795059204,2.403778553009033
2.267462968826294,-8.59997272491455,-2.164358377456665,2.2888567447662354
2.269657850265503,-8.695740699768066,-2.2026655673980713,2.030282974243164
2.2718427181243896,-8.734047889709473,-2.2601263523101807,1.944091796875
2.2729380130767822,-8.791508674621582,-2.298433542251587,2.145204782485962
2.2751119136810303,-8.724471092224121,-2.365471363067627,2.212242364883423
2.277280330657959,-8.59997272491455,-2.3558945655822754,2.250549554824829
2.2794559001922607,-8.619126319885254,-2.2888567447662354,2.298433542251587
2.281625509262085,-8.485051155090332,-2.164358377456665,2.3942017555236816
2.2837963104248047,-8.418013572692871,-2.1068975925445557,2.3080103397369385
2.2848961353302,-8.389283180236816,-2.1356279850006104,2.3271639347076416
2.2870657444000244,-8.40843677520752,-2.097320795059204,2.3750481605529785
2.2892417907714844,-8.523358345031738,-2.164358377456665,2.231395959854126
2.2914106845855713,-8.580819129943848,-2.231395959854126,2.097320795059204
2.2925055027008057,-8.743624687194824,-2.365471363067627,2.049436569213867
2.29467511177063,-8.743624687194824,-2.4420857429504395,2.2601263523101807
2.296842336654663,-8.724471092224121,-2.3750481605529785,2.231395959854126
2.2990078926086426,-8.552088737487793,-2.346317768096924,2.3080103397369385
2.3011820316314697,-8.47547435760498,-2.2409727573394775,2.4420857429504395
2.3033621311187744,-8.418013572692871,-2.1739351749420166,2.4420857429504395
2.3044686317443848,-8.33182144165039,-2.145204782485962,2.432508945465088
2.306643486022949,-8.33182144165039,-2.049436569213867,2.4803929328918457
2.3088176250457764,-8.293514251708984,-2.049436569213867,2.5953147411346436
2.3109941482543945,-8.360552787780762,-2.1164743900299072,2.470816135406494
2.3131656646728516,-8.370129585266113,-2.2026655673980713,2.4133553504943848
2.3142611980438232,-8.523358345031738,-2.2697031497955322,2.403778553009033
2.3164374828338623,-8.571242332458496,-2.3080103397369385,2.4420857429504395
2.318603992462158,-8.504204750061035,-2.31758713722229,2.2888567447662354
2.320822238922119,-8.485051155090332,-2.2409727573394775,2.3942017555236816
2.3229928016662598,-8.389283180236816,-2.1739351749420166,2.4420857429504395
2.3240878582000732,-8.322244644165039,-2.1164743900299072,2.4420857429504395
2.326265335083008,-8.255207061767578,-2.1164743900299072,2.403778553009033
2.3284363746643066,-8.274360656738281,-2.1068975925445557,2.4899697303771973
2.3306076526641846,-8.26478385925293,-2.0877439975738525,2.4612393379211426
2.3327760696411133,-8.303091049194336,-2.145204782485962,2.279279947280884
2.3338708877563477,-8.370129585266113,-2.2026655673980713,2.250549554824829
2.336045265197754,-8.418013572692871,-2.2888567447662354,2.3080103397369385
2.338212728500366,-8.389283180236816,-2.3271639347076416,2.279279947280884
2.3403830528259277,-8.341399192810059,-2.3080103397369385,2.250549554824829
2.3425495624542236,-8.379706382751465,-2.279279947280884,2.250549554824829
2.343644618988037,-8.312667846679688,-2.183511972427368,2.346317768096924
2.3458173274993896,-8.197746276855469,-2.097320795059204,2.3080103397369385
2.347987413406372,-8.197746276855469,-2.0877439975738525,2.365471363067627
2.3501548767089844,-8.236053466796875,-2.0590133666992188,2.31758713722229
2.3523311614990234,-8.33182144165039,-2.078166961669922,2.279279947280884
2.3534257411956787,-8.33182144165039,-2.097320795059204,2.1164743900299072
2.3555984497070312,-8.370129585266113,-2.164358377456665,2.2218191623687744
2.3577654361724854,-8.322244644165039,-2.231395959854126,2.346317768096924
2.3599331378936768,-8.236053466796875,-2.231395959854126,2.403778553009033
2.362104654312134,-8.188169479370117,-2.1930887699127197,2.4803929328918457
2.3632001876831055,-8.197746276855469,-2.126051187515259,2.5953147411346436
2.3653669357299805,-8.159439086914062,-2.1068975925445557,2.5282769203186035
2.3675384521484375,-8.188169479370117,-2.030282974243164,2.4803929328918457
2.369704484939575,-8.188169479370117,-2.049436569213867,2.5282769203186035
2.3719353675842285,-8.197746276855469,-2.0207061767578125,2.6240451335906982
2.373030662536621,-8.216899871826172,-2.030282974243164,2.4420857429504395
2.375200033187866,-8.245630264282227,-2.1068975925445557,2.3942017555236816
2.3773744106292725,-8.322244644165039,-2.1164743900299072,2.537853717803955
2.379540205001831,-8.255207061767578,-2.1068975925445557,2.5761611461639404
2.38171124458313,-8.159439086914062,-2.0685901641845703,2.5665841102600098
2.382807493209839,-8.130708694458008,-2.0398597717285156,2.6144683361053467
2.384974479675293,-8.08282470703125,-1.9536685943603516,2.6815059185028076
2.3871428966522217,-8.092401504516602,-1.9345149993896484,2.557007312774658
2.389307737350464,-8.111555099487305,-1.9728221893310547,2.3942017555236816
2.391479253768921,-8.236053466796875,-1.9536685943603516,2.4133553504943848
2.3925743103027344,-8.26478385925293,-1.9823989868164062,2.3750481605529785
2.3947551250457764,-8.303091049194336,-2.0685901641845703,2.250549554824829
2.396928310394287,-8.274360656738281,-2.097320795059204,2.231395959854126
2.3990962505340576,-8.322244644165039,-2.0877439975738525,2.38462495803833
2.401265859603882,-8.33182144165039,-2.1068975925445557,2.432508945465088
2.4023683071136475,-8.216899871826172,-2.078166961669922,2.3750481605529785
2.404536008834839,-8.169015884399414,-1.9823989868164062,2.432508945465088
2.406705856323242,-8.044517517089844,-1.9536685943603516,2.5953147411346436
2.4088690280914307,-8.006210327148438,-1.886630892753601,2.604891538619995
2.411041498184204,-7.939172744750977,-1.9153614044189453,2.585737943649292
2.412142753601074,-8.178592681884766,-1.944091796875,2.6623523235321045
2.415389060974121,-8.20732307434082,-1.9919757843017578,2.6240451335906982
2.4164857864379883,-8.283937454223633,-2.0015525817871094,2.3558945655822754
2.41866135597229,-8.389283180236816,-2.0685901641845703,2.365471363067627
2.4208314418792725,-8.341399192810059,-2.049436569213867,2.4612393379211426
2.4230406284332275,-8.322244644165039,-2.0207061767578125,2.518700122833252
2.424137830734253,-8.149862289428711,-1.9632453918457031,2.5282769203186035
2.426305055618286,-8.188169479370117,-1.9249382019042969,2.604891538619995
2.4284799098968506,-8.063671112060547,-1.8195933103561401,2.7964274883270264
2.4306533336639404,-8.02536392211914,-1.7908629179000854,2.7102363109588623
2.4317479133605957,-8.044517517089844,-1.8100165128707886,2.806004285812378
2.4339184761047363,-8.092401504516602,-1.8100165128707886,2.806004285812378
2.4360876083374023,-8.169015884399414,-1.867477297782898,2.7102363109588623
2.4382569789886475,-8.293514251708984,-1.9632453918457031,2.4803929328918457
2.4404256343841553,-8.916007041931152,-2.0207061767578125,1.8483237028121948
2.4425981044769287,-9.730035781860352,-1.6759412288665771,0.9576807022094727
2.4436943531036377,-2.6431987285614014,-1.2641384601593018,6.349422931671143
2.445861577987671,-3.1316158771514893,-2.5665841102600098,8.47547435760498
2.4480345249176025,-11.425130844116211,-1.1492167711257935,-1.0247182846069336
2.4502034187316895,-9.481039047241211,-2.1739351749420166,-9.165003776550293
2.4512999057769775,-19.460071563720703,-5.506663799285889,-4.146757125854492
2.4534718990325928,-17.48724937438965,-3.533841609954834,-3.3423056602478027
2.455636978149414,-7.374141216278076,-3.687070608139038,1.4173674583435059
2.457806348800659,-10.706870079040527,-5.449203014373779,7.872135162353516
2.459974765777588,-6.45476770401001,-2.853888511657715,1.944091796875
2.462139844894409,-7.479485988616943,-3.026270866394043,2.499546527862549
2.4632434844970703,-14.662091255187988,-5.602431774139404,5.458779811859131
2.4654128551483154,-12.957419395446777,-1.9536685943603516,2.7676970958709717
2.4675796031951904,-12.009315490722656,-1.2737152576446533,1.216254472732544
2.4697518348693848,-14.16409683227539,-2.3942017555236816,2.652775526046753
2.4719204902648926,-12.191274642944336,-0.871489405632019,-0.3734954595565796
2.47304105758667,-13.168108940124512,-3.7636849880218506,1.6855180263519287
2.4752111434936523,-16.031574249267578,-5.085284233093262,7.364564418792725
2.4773783683776855,-12.938265800476074,-2.8443117141723633,7.134721279144287
2.479546308517456,-12.200851440429688,-2.38462495803833,3.9169139862060547
2.481713056564331,-12.708422660827637,-2.231395959854126,5.966350555419922
2.4828081130981445,-14.125789642333984,-1.2258312702178955,4.932055473327637
2.4849801063537598,-14.595053672790527,-2.9496564865112305,6.512228488922119
2.4871482849121094,-16.194379806518555,-4.127603530883789,7.90086555480957
2.4893200397491455,-14.36521053314209,-2.2218191623687744,8.044517517089844
2.491488456726074,-13.196839332580566,-2.537853717803955,6.205770969390869
2.4936604499816895,-14.681244850158691,-2.5953147411346436,7.115567684173584
2.494770050048828,-14.250288963317871,-2.38462495803833,7.527369976043701
2.496941328048706,-16.65406608581543,-3.840299606323242,9.165003776550293
2.4991140365600586,-16.22311019897461,-3.7445313930511475,9.41400146484375
2.5012800693511963,-13.91510009765625,-2.6431987285614014,8.197746276855469
2.502373456954956,-14.16409683227539,-2.911349296569824,8.044517517089844
2.504547119140625,-14.183250427246094,-2.959233283996582,8.973467826843262
2.5067145824432373,-15.389928817749023,-3.4572272300720215,9.27034854888916
2.5088894367218018,-16.606182098388672,-3.9264907836914062,8.925583839416504
2.511058807373047,-15.954959869384766,-2.8347349166870117,7.6997528076171875
2.5132229328155518,-14.767436027526855,-2.38462495803833,6.311115741729736
2.5143234729766846,-14.652514457702637,-2.9879636764526367,6.464344501495361
2.5165040493011475,-14.891934394836426,-3.620033025741577,7.661445617675781
2.5186777114868164,-15.715539932250977,-4.146757125854492,7.910442352294922
2.5208520889282227,-16.060304641723633,-4.050989151000977,6.876147270202637
2.521947145462036,-15.456966400146484,-3.485957622528076,5.669469833374023
2.5241222381591797,-15.399505615234375,-3.4380736351013184,5.295974254608154
2.526285409927368,-15.380352020263672,-3.974374771118164,5.985504150390625
2.5284526348114014,-15.504850387573242,-4.405331134796143,6.45476770401001
2.5306241512298584,-15.705963134765625,-4.462791919708252,6.129156112670898
2.532796621322632,-15.294160842895508,-4.127603530883789,5.2672438621521
2.5338926315307617,-15.026009559631348,-3.7924153804779053,4.501099109649658
2.5360703468322754,-14.872780799865723,-3.840299606323242,4.644751071929932
2.5382399559020996,-15.30373764038086,-4.165910720825195,5.305551052093506
2.5404131412506104,-15.332468032836914,-4.20421838760376,5.39174222946167
2.5415093898773193,-14.958971977233887,-4.252102375030518,4.730942726135254
2.54367733001709,-14.508862495422363,-4.1180267333984375,4.548983097076416
2.545850992202759,-14.020444869995117,-4.01268196105957,4.778826713562012
2.5480194091796875,-14.010868072509766,-4.156333923339844,5.4013190269470215
2.550189256668091,-14.087482452392578,-4.185064792633057,5.544970989227295
2.5523576736450195,-13.943830490112305,-3.9169139862060547,5.056553840637207
2.5534515380859375,-13.685256958007812,-3.7158010005950928,4.424484729766846
2.555629014968872,-13.24472427368164,-3.6966474056243896,4.347870349884033
2.557797431945801,-12.957419395446777,-3.8307228088378906,4.9799394607543945
2.559974431991577,-12.861651420593262,-3.9839515686035156,5.5545477867126465
2.562142848968506,-12.737153053283691,-3.8594532012939453,5.410895824432373
2.5632381439208984,-12.4785795211792,-3.5434184074401855,4.797980308532715
2.5654094219207764,-12.057199478149414,-3.3423056602478027,4.63517427444458
2.567577362060547,-11.626243591308594,-3.246537446975708,4.903325080871582
2.56974458694458,-11.41555404663086,-3.3518824577331543,5.382165431976318
2.571916341781616,-11.099518775939941,-3.294421434402466,5.439626216888428
2.573010206222534,-10.955866813659668,-3.045424461364746,4.970362663269043
2.575181007385254,-10.716446876525879,-2.873042106628418,4.558559894561768
2.577348232269287,-10.41956615447998,-2.691082715988159,4.338293552398682
2.579519033432007,-10.141838073730469,-2.6240451335906982,4.491522312164307
2.581693410873413,-9.959878921508789,-2.6623523235321045,4.644751071929932
2.5827975273132324,-9.576807022094727,-2.604891538619995,4.491522312164307
2.584965944290161,-9.232041358947754,-2.470816135406494,4.079719543457031
2.5871384143829346,-8.868123054504395,-2.3750481605529785,3.9169139862060547
2.5893049240112305,-8.695740699768066,-2.3558945655822754,3.8786067962646484
2.591477155685425,-8.40843677520752,-2.2888567447662354,3.8977603912353516
2.592571496963501,-8.178592681884766,-2.2409727573394775,3.687070608139038
2.59474778175354,-7.881711959838867,-2.097320795059204,3.2561142444610596
2.5969200134277344,-7.632715225219727,-2.1068975925445557,2.940079689025879
2.599087715148926,-7.364564418792725,-2.145204782485962,2.7964274883270264
2.601259231567383,-7.134721279144287,-2.164358377456665,2.8155810832977295
2.6034274101257324,-6.962338447570801,-2.1739351749420166,2.604891538619995
2.6045217514038086,-6.646304130554199,-2.030282974243164,2.3271639347076416
2.6066946983337402,-6.368576526641846,-1.867477297782898,1.8579005002975464
2.6088674068450928,-6.129156112670898,-1.8770540952682495,1.5322890281677246
2.611039638519287,-6.01423454284668,-1.9249382019042969,1.4748282432556152
2.612135171890259,-5.803544998168945,-1.9345149993896484,1.436521053314209
2.614299774169922,-5.583278179168701,-1.8962076902389526,1.2066776752471924
2.616471529006958,-5.200206279754639,-1.800439715385437,0.8906430602073669
2.6186349391937256,-5.027823448181152,-1.7046716213226318,0.5267243981361389
2.6207988262176514,-4.855441093444824,-1.6855180263519287,0.6129156351089478
2.6229777336120605,-4.711789131164551,-1.6663644313812256,0.5554547905921936
2.624077081680298,-4.405331134796143,-1.6376339197158813,0.40222588181495667
2.6262476444244385,-4.185064792633057,-1.5610195398330688,0.2106897532939911
2.6309759616851807,-3.9264907836914062,-1.4460978507995605,0.13407529890537262
2.632097005844116,-3.734954595565796,-1.4939818382263184,0.14365209639072418
2.6331980228424072,-3.6774938106536865,-1.522712230682373,0.1628057211637497
2.6342947483062744,-3.514688014984131,-1.4652514457702637,0.181959331035614
2.6364688873291016,-3.3901896476745605,-1.37906014919281,0.028730420395731926
2.6386377811431885,-3.112462282180786,-1.2066776752471924,-0.1628057211637497
2.639734983444214,-2.978386878967285,-1.216254472732544,-0.2585737705230713
2.6419031620025635,-2.8443117141723633,-1.216254472732544,-0.047884032130241394
2.644075393676758,-2.7485435009002686,-1.1492167711257935,-0.009576806798577309
2.646245002746582,-2.5665841102600098,-1.0342950820922852,0.047884032130241394
2.648418664932251,-2.470816135406494,-0.9576807022094727,-0.019153613597154617
2.649515151977539,-2.279279947280884,-0.9097966551780701,-0.10534487664699554
2.6517529487609863,-2.3080103397369385,-0.8906430602073669,-0.1628057211637497
2.6539254188537598,-2.3080103397369385,-0.8236053586006165,-0.06703764945268631
2.656094789505005,-2.183511972427368,-0.7852981686592102,-0.1628057211637497
2.6571943759918213,-2.0685901641845703,-0.7374141216278076,-0.24899697303771973
2.65936279296875,-2.049436569213867,-0.6512228846549988,-0.35434186458587646
2.661531686782837,-2.0015525817871094,-0.6607996821403503,-0.181959331035614
2.6637024879455566,-2.0207061767578125,-0.6991068720817566,-0.06703764945268631
2.665868043899536,-1.8962076902389526,-0.6703764796257019,-0.14365209639072418
2.6680378913879395,-1.9345149993896484,-0.6224924325942993,-0.20111294090747833
2.6702041625976562,-1.886630892753601,-0.5937620401382446,-0.31603461503982544
2.6723763942718506,-1.886630892753601,-0.5171475410461426,-0.3926490843296051
2.6745455265045166,-1.9632453918457031,-0.507570743560791,-0.3447650372982025
2.6756467819213867,-2.0398597717285156,-0.5937620401382446,-0.28730419278144836
2.677821397781372,-2.011129379272461,-0.545877993106842,-0.40222588181495667
2.678922653198242,-1.9919757843017578,-0.6033388376235962,-0.38307225704193115
2.6811084747314453,-2.1164743900299072,-0.6703764796257019,-0.3926490843296051
2.6833038330078125,-2.279279947280884,-0.7565677165985107,-0.3064578175544739
2.685556411743164,-2.3558945655822754,-0.7661445140838623,-0.22026655077934265
2.6877689361572266,-2.4133553504943848,-0.8044517636299133,-0.43095630407333374
2.688894271850586,-2.4803929328918457,-0.7661445140838623,-0.43095630407333374
2.6910910606384277,-2.604891538619995,-0.6799532771110535,-0.4692635238170624
2.6932761669158936,-2.63362193107605,-0.7086837291717529,-0.4213795065879822
2.695449113845825,-2.853888511657715,-0.727837324142456,-0.2777273952960968
2.6965484619140625,-2.959233283996582,-0.7182605266571045,-0.19153612852096558
2.6987218856811523,-3.0837318897247314,-0.6799532771110535,-0.1149216815829277
2.7008941173553467,-3.093308687210083,-0.727837324142456,0.019153613597154617
2.7030739784240723,-3.2369606494903564,-0.7469909191131592,0.1149216815829277
2.705240488052368,-3.466804027557373,-0.8044517636299133,0.2298433631658554
2.706333637237549,-3.7253777980804443,-0.7948749661445618,0.28730419278144836
2.7085094451904297,-3.8594532012939453,-0.7948749661445618,0.2777273952960968
2.710675001144409,-4.07014274597168,-0.7757213711738586,0.2968810200691223
2.712841033935547,-4.213795185089111,-0.8236053586006165,0.47884035110473633
2.7150120735168457,-4.443638324737549,-0.7948749661445618,0.689530074596405
2.7171785831451416,-4.644751071929932,-0.8331822156906128,0.6991068720817566
2.7182748317718506,-4.778826713562012,-0.8331822156906128,0.8140285611152649
2.720445394515991,-4.970362663269043,-0.8140285611152649,0.9576807022094727
2.7226145267486572,-5.066130638122559,-0.7661445140838623,1.0630255937576294
2.7247867584228516,-5.20978307723999,-0.7757213711738586,1.158793568611145
2.7258810997009277,-5.439626216888428,-0.8331822156906128,1.2737152576446533
2.7280499935150146,-5.698200225830078,-0.8236053586006165,1.3982137441635132
2.7302215099334717,-5.899312973022461,-0.8331822156906128,1.4077905416488647
2.732390880584717,-6.100425720214844,-0.8523358106613159,1.3982137441635132
2.7345945835113525,-6.349422931671143,-0.8427590131759644,1.3982137441635132
2.7356889247894287,-6.560112476348877,-0.871489405632019,1.5418659448623657
2.737854242324829,-6.7708024978637695,-0.9097966551780701,1.647210717201233
2.740025758743286,-6.9910688400268555,-0.9193734526634216,1.7334020137786865
2.7421927452087402,-7.105990409851074,-0.9193734526634216,1.867477297782898
2.7443647384643555,-7.307103633880615,-0.8906430602073669,1.9345149993896484
2.7465317249298096,-7.450755596160889,-0.8236053586006165,2.097320795059204
2.747628927230835,-7.623138427734375,-0.8523358106613159,2.2409727573394775
2.749800205230713,-7.920019149780273,-0.8810662031173706,2.279279947280884
2.751970052719116,-8.063671112060547,-0.871489405632019,2.279279947280884
2.7541422843933105,-8.370129585266113,-0.8619126081466675,2.2601263523101807
2.756312608718872,-8.552088737487793,-0.871489405632019,2.2697031497955322
2.7574079036712646,-8.753201484680176,-0.9002198576927185,2.3942017555236816
2.7595767974853516,-8.96389102935791,-0.9576807022094727,2.6144683361053467
2.7617428302764893,-9.193734169006348,-0.9864110946655273,2.7102363109588623
2.763909101486206,-9.375694274902344,-1.0438719987869263,2.8155810832977295
2.7660820484161377,-9.605537414550781,-1.091755986213684,2.8826189041137695
2.7671751976013184,-9.825803756713867,-1.1013327836990356,2.9688100814819336
2.769347667694092,-10.02691650390625,-1.1109095811843872,3.0358476638793945
2.771516799926758,-10.20887565612793,-1.1875240802764893,3.179499864578247
2.7736828327178955,-10.496180534362793,-1.1779472827911377,3.141192674636841
2.775852918624878,-10.668562889099121,-1.1875240802764893,3.3423056602478027
2.776947498321533,-10.888829231262207,-1.216254472732544,3.485957622528076
2.7791149616241455,-11.003750801086426,-1.2449848651885986,3.533841609954834
2.781285524368286,-11.166556358337402,-1.2545616626739502,3.600879430770874
2.783452272415161,-11.434707641601562,-1.2545616626739502,3.801992416381836
2.785620927810669,-11.549629211425781,-1.2641384601593018,3.8594532012939453
2.786715269088745,-11.66455078125,-1.3024457693099976,4.041412353515625
2.7888848781585693,-11.91354751586914,-1.3503297567367554,4.20421838760376
2.7910618782043457,-12.02846908569336,-1.4460978507995605,4.4532151222229
2.793229341506958,-12.15296745300293,-1.5131354331970215,4.5394062995910645
2.795405626296997,-12.287043571472168,-1.5418659448623657,4.730942726135254
2.7965006828308105,-12.36365795135498,-1.4748282432556152,4.95120906829834
2.798666477203369,-12.469002723693848,-1.5322890281677246,4.932055473327637
2.800840139389038,-12.536040306091309,-1.5418659448623657,4.999093055725098
2.8030083179473877,-12.737153053283691,-1.5131354331970215,5.085284233093262
2.8051788806915283,-12.765883445739746,-1.522712230682373,5.20978307723999
2.8062729835510254,-12.871228218078613,-1.5610195398330688,5.2672438621521
2.8084394931793213,-12.928689002990723,-1.6089035272598267,5.372588634490967
2.810617208480835,-12.995726585388184,-1.6376339197158813,5.449203014373779
2.812786817550659,-13.014880180358887,-1.6855180263519287,5.468356609344482
2.814954996109009,-12.986149787902832,-1.6855180263519287,5.458779811859131
2.8171277046203613,-13.129801750183105,-1.656787633895874,5.583278179168701
2.8182225227355957,-13.10107135772705,-1.7046716213226318,5.564124584197998
2.820394992828369,-13.139378547668457,-1.7334020137786865,5.439626216888428
2.8225607872009277,-13.225569725036621,-1.8100165128707886,5.4875102043151855
2.824727773666382,-13.206416130065918,-1.8579005002975464,5.468356609344482
2.8258252143859863,-13.168108940124512,-1.9345149993896484,5.410895824432373
2.8279926776885986,-13.196839332580566,-1.9536685943603516,5.372588634490967
2.8301587104797363,-13.139378547668457,-1.9728221893310547,5.353435039520264
2.8323307037353516,-13.110648155212402,-2.0207061767578125,5.20978307723999
2.8344979286193848,-13.110648155212402,-2.0590133666992188,4.9799394607543945
2.836707592010498,-13.0914945602417,-2.0877439975738525,4.836287498474121
2.837803840637207,-13.0914945602417,-2.1930887699127197,4.711789131164551
2.8399715423583984,-13.129801750183105,-2.2409727573394775,4.587290287017822
2.842149257659912,-13.072340965270996,-2.346317768096924,4.3191399574279785
2.8443167209625244,-13.053187370300293,-2.403778553009033,4.3191399574279785
2.8454105854034424,-12.97657299041748,-2.432508945465088,4.194641590118408
2.8475849628448486,-12.880805015563965,-2.4803929328918457,4.127603530883789
2.8497490882873535,-12.78503704071045,-2.4803929328918457,4.213795185089111
2.851919412612915,-12.737153053283691,-2.5665841102600098,4.060565948486328
2.8540842533111572,-12.60307788848877,-2.537853717803955,4.050989151000977
2.8562538623809814,-12.449849128723145,-2.5953147411346436,4.050989151000977
2.857348918914795,-12.440272331237793,-2.5761611461639404,4.060565948486328
2.8595190048217773,-12.354081153869629,-2.6431987285614014,4.098873138427734
2.8616907596588135,-12.191274642944336,-2.5953147411346436,4.098873138427734
2.8638617992401123,-12.076353073120117,-2.604891538619995,4.079719543457031
2.866030216217041,-11.903970718383789,-2.5761611461639404,4.127603530883789
2.867128849029541,-11.769895553588867,-2.557007312774658,4.165910720825195
2.869295358657837,-11.578359603881836,-2.5474305152893066,4.271255970001221
2.8714683055877686,-11.473014831542969,-2.518700122833252,4.376600742340088
2.873633623123169,-11.30063247680664,-2.537853717803955,4.338293552398682
2.8757994174957275,-11.166556358337402,-2.470816135406494,4.290409564971924
2.876897096633911,-10.984597206115723,-2.5091233253479004,4.367023944854736
2.879087209701538,-10.898406028747559,-2.5091233253479004,4.299986362457275
2.88126540184021,-10.754754066467285,-2.557007312774658,4.242525577545166
2.883441686630249,-10.639832496643066,-2.5761611461639404,4.146757125854492
2.8856112957000732,-10.438719749450684,-2.5665841102600098,4.137180328369141
2.8867106437683105,-10.285490036010742,-2.5282769203186035,4.127603530883789
2.8888814449310303,-10.065223693847656,-2.585737943649292,4.108449935913086
2.8910763263702393,-9.911994934082031,-2.518700122833252,3.9839515686035156
2.8933401107788086,-9.749189376831055,-2.537853717803955,3.8594532012939453
2.894458055496216,-9.59596061706543,-2.5091233253479004,3.754108190536499
2.896634101867676,-9.452308654785156,-2.518700122833252,3.5721490383148193
2.898808717727661,-9.279925346374512,-2.5474305152893066,3.5051112174987793
2.9009766578674316,-9.14585018157959,-2.604891538619995,3.3710360527038574
2.9031498432159424,-9.069235801696777,-2.6144683361053467,3.1890766620635986
2.9053194522857666,-8.89685344696045,-2.691082715988159,3.093308687210083
2.906414270401001,-8.705317497253418,-2.6815059185028076,2.9305028915405273
2.90859317779541,-8.561665534973145,-2.7102363109588623,2.75812029838562
2.9107728004455566,-8.40843677520752,-2.7293899059295654,2.7006595134735107
2.9129586219787598,-8.226476669311523,-2.75812029838562,2.6144683361053467
2.9140543937683105,-8.092401504516602,-2.7293899059295654,2.4612393379211426
2.916227340698242,-7.967903137207031,-2.7102363109588623,2.432508945465088
2.9184012413024902,-7.7763671875,-2.7485435009002686,2.298433542251587
2.92057466506958,-7.556100368499756,-2.7102363109588623,2.2026655673980713
2.922760486602783,-7.489062786102295,-2.7293899059295654,2.1164743900299072
2.9249303340911865,-7.316680431365967,-2.7772738933563232,2.097320795059204
2.9260265827178955,-7.1921820640563965,-2.7676970958709717,1.9919757843017578
2.9282000064849854,-7.058106422424316,-2.75812029838562,1.944091796875
2.9303672313690186,-6.962338447570801,-2.7676970958709717,1.9057846069335938
2.9325358867645264,-6.7708024978637695,-2.7293899059295654,1.8770540952682495
2.934711456298828,-6.703764915466309,-2.7293899059295654,1.800439715385437
2.9358091354370117,-6.560112476348877,-2.75812029838562,1.742978811264038
2.9379770755767822,-6.435614109039307,-2.671929121017456,1.647210717201233
2.940157413482666,-6.282385349273682,-2.6431987285614014,1.6855180263519287
2.9423305988311768,-6.1770405769348145,-2.6623523235321045,1.5897499322891235
2.943430185317993,-6.042964935302734,-2.6240451335906982,1.5322890281677246
2.945600748062134,-5.95677375793457,-2.585737943649292,1.50355863571167
2.947770595550537,-5.813121795654297,-2.537853717803955,1.4460978507995605
2.9499428272247314,-5.7556610107421875,-2.585737943649292,1.3503297567367554
2.952115297317505,-5.65031623840332,-2.499546527862549,1.3694833517074585
2.9542903900146484,-5.583278179168701,-2.5091233253479004,1.2641384601593018
2.955387592315674,-5.535394191741943,-2.4612393379211426,1.1971008777618408
2.9575579166412354,-5.382165431976318,-2.4420857429504395,1.158793568611145
2.959735631942749,-5.363011837005615,-2.470816135406494,1.1683704853057861
2.9619033336639404,-5.295974254608154,-2.432508945465088,1.1492167711257935
2.964078426361084,-5.152322292327881,-2.4420857429504395,1.0821791887283325
2.9651756286621094,-5.171475887298584,-2.5091233253479004,1.0630255937576294
2.967345952987671,-5.114014625549316,-2.4612393379211426,1.1013327836990356
2.9695181846618652,-4.9799394607543945,-2.4612393379211426,1.0247182846069336
2.971686363220215,-5.008669853210449,-2.432508945465088,1.0247182846069336
2.9738588333129883,-4.912901878356934,-2.4612393379211426,1.015141487121582
2.9749553203582764,-4.874594688415527,-2.432508945465088,0.8906430602073669
2.9771242141723633,-4.922478675842285,-2.38462495803833,0.9864110946655273
2.979299306869507,-4.903325080871582,-2.432508945465088,0.8523358106613159
2.981468915939331,-4.903325080871582,-2.4229321479797363,0.8906430602073669
2.983685255050659,-4.865017890930176,-2.4420857429504395,0.8427590131759644
2.984783172607422,-4.903325080871582,-2.432508945465088,0.8331822156906128
2.9869532585144043,-4.922478675842285,-2.451662540435791,0.8236053586006165
2.989122152328491,-4.865017890930176,-2.4899697303771973,0.8523358106613159
2.991288900375366,-4.8937482833862305,-2.432508945465088,0.8427590131759644
2.9934558868408203,-4.912901878356934,-2.3942017555236816,0.9097966551780701
2.9945530891418457,-4.9799394607543945,-2.4133553504943848,0.8810662031173706
2.996722936630249,-4.9799394607543945,-2.38462495803833,0.9097966551780701
2.998894453048706,-4.999093055725098,-2.4229321479797363,1.015141487121582
3.0010716915130615,-5.07570743560791,-2.4133553504943848,1.0630255937576294
3.003242015838623,-5.094861030578613,-2.365471363067627,1.0534487962722778
3.0043435096740723,-5.161899089813232,-2.3367409706115723,1.1204863786697388
3.0065114498138428,-5.20978307723999,-2.3080103397369385,1.091755986213684
3.008678674697876,-5.257667064666748,-2.298433542251587,1.1683704853057861
3.0108511447906494,-5.295974254608154,-2.2697031497955322,1.2449848651885986
3.0130231380462646,-5.353435039520264,-2.2697031497955322,1.2832920551300049
3.0141170024871826,-5.353435039520264,-2.250549554824829,1.3311761617660522
3.0162906646728516,-5.468356609344482,-2.2026655673980713,1.3694833517074585
3.0184571743011475,-5.506663799285889,-2.212242364883423,1.4173674583435059
3.0206284523010254,-5.564124584197998,-2.2218191623687744,1.4173674583435059
3.022800922393799,-5.631162166595459,-2.1739351749420166,1.50355863571167
3.0249767303466797,-5.736507415771484,-2.1739351749420166,1.5131354331970215
3.0260727405548096,-5.813121795654297,-2.1164743900299072,1.5705963373184204
3.0282416343688965,-5.851428985595703,-2.126051187515259,1.522712230682373
3.0304152965545654,-5.95677375793457,-2.0685901641845703,1.6089035272598267
3.0325868129730225,-6.042964935302734,-2.049436569213867,1.5131354331970215
3.0336806774139404,-6.157886981964111,-2.0207061767578125,1.522712230682373
3.0358543395996094,-6.205770969390869,-1.9919757843017578,1.4939818382263184
3.0380210876464844,-6.301538944244385,-2.0015525817871094,1.5514427423477173
3.0401928424835205,-6.3973069190979,-1.9536685943603516,1.6184803247451782
3.0423572063446045,-6.445190906524658,-1.9728221893310547,1.6376339197158813
3.0445404052734375,-6.512228488922119,-1.9536685943603516,1.6089035272598267
3.045647621154785,-6.675034523010254,-1.9057846069335938,1.5610195398330688
3.0478227138519287,-6.789956092834473,-1.886630892753601,1.6663644313812256
3.0499937534332275,-6.856993675231934,-1.8962076902389526,1.6855180263519287
3.052171230316162,-6.9910688400268555,-1.8770540952682495,1.6855180263519287
3.053267002105713,-7.058106422424316,-1.8291701078414917,1.6663644313812256
3.055440902709961,-7.1921820640563965,-1.8100165128707886,1.6950948238372803
3.0576109886169434,-7.268796443939209,-1.8195933103561401,1.723825216293335
3.0597760677337646,-7.4316020011901855,-1.7812861204147339,1.7334020137786865
3.0619490146636963,-7.536946773529053,-1.7525556087493896,1.7717092037200928
3.0630452632904053,-7.613561630249023,-1.6950948238372803,1.8291701078414917
3.0652129650115967,-7.738059997558594,-1.6950948238372803,1.8291701078414917
3.0673866271972656,-7.881711959838867,-1.656787633895874,1.8962076902389526
3.0695557594299316,-8.006210327148438,-1.6280571222305298,1.9536685943603516
3.071732759475708,-8.121131896972656,-1.5897499322891235,1.9919757843017578
3.073904037475586,-8.236053466796875,-1.5131354331970215,2.1068975925445557
3.0749990940093994,-8.274360656738281,-1.4269442558288574,2.2026655673980713
3.077172040939331,-8.427590370178223,-1.4173674583435059,2.279279947280884
3.0793373584747314,-8.542511940002441,-1.3886369466781616,2.31758713722229
3.0815086364746094,-8.71489429473877,-1.3503297567367554,2.432508945465088
3.08260440826416,-8.753201484680176,-1.3024457693099976,2.4899697303771973
3.0847737789154053,-8.887276649475098,-1.2066776752471924,2.6144683361053467
3.086947202682495,-8.973467826843262,-1.1109095811843872,2.671929121017456
3.0891146659851074,-9.059659004211426,-1.0247182846069336,2.738966703414917
3.091290235519409,-9.14585018157959,-0.9576807022094727,2.8347349166870117
3.093458890914917,-9.260771751403809,-0.9097966551780701,2.978386878967285
3.094552993774414,-9.308655738830566,-0.8619126081466675,3.064578056335449
3.0967273712158203,-9.375694274902344,-0.7661445140838623,3.1220390796661377
3.098897695541382,-9.442731857299805,-0.7757213711738586,3.2178070545196533
3.101062297821045,-9.548076629638672,-0.6416460275650024,3.313575267791748
3.103235960006714,-9.624691009521484,-0.6033388376235962,3.361459255218506
3.104332685470581,-9.701305389404297,-0.5650315880775452,3.4189200401306152
3.1065030097961426,-9.806650161743164,-0.4884171485900879,3.4572272300720215
3.108703374862671,-9.854534149169922,-0.4596867263317108,3.485957622528076
3.11095929145813,-9.892841339111328,-0.43095630407333374,3.5434184074401855
3.112074851989746,-9.96945571899414,-0.33518823981285095,3.5434184074401855
3.1142468452453613,-9.998186111450195,-0.2968810200691223,3.5625722408294678
3.116417169570923,-10.074800491333008,-0.2585737705230713,3.581725835800171
3.1212007999420166,-10.103530883789062,-0.181959331035614,3.5913026332855225
3.122318744659424,-10.141838073730469,-0.15322890877723694,3.620033025741577
3.1234190464019775,-10.247182846069336,-0.12449848651885986,3.5625722408294678
3.1245243549346924,-10.256759643554688,-0.07661445438861847,3.6104562282562256
3.126699209213257,-10.295066833496094,-0.038307227194309235,3.5242648124694824
3.1278088092803955,-10.35252857208252,-0.038307227194309235,3.5051112174987793
3.129974365234375,-10.390835762023926,-0.019153613597154617,3.4955344200134277
3.1321470737457275,-10.409989356994629,-0.009576806798577309,3.44765043258667
3.1343140602111816,-10.448296546936035,0.019153613597154617,3.4763808250427246
3.136484146118164,-10.438719749450684,0.038307227194309235,3.485957622528076
3.138657808303833,-10.448296546936035,0.047884032130241394,3.4572272300720215
3.1397600173950195,-10.47702693939209,0.038307227194309235,3.4093432426452637
3.1419312953948975,-10.524910926818848,0.09576806426048279,3.4189200401306152
3.1441116333007812,-10.496180534362793,0.07661445438861847,3.44765043258667
3.1462795734405518,-10.505757331848145,0.06703764945268631,3.4380736351013184
3.1473758220672607,-10.563218116760254,0.1149216815829277,3.3901896476745605
3.1495513916015625,-10.505757331848145,0.12449848651885986,3.3039982318878174
3.1517202854156494,-10.47702693939209,0.08619125932455063,3.3901896476745605
3.1538896560668945,-10.505757331848145,-0.009576806798577309,3.361459255218506
3.1560564041137695,-10.400412559509277,0.06703764945268631,3.4380736351013184
3.1571507453918457,-10.438719749450684,0.05746084079146385,3.3039982318878174
3.159336566925049,-10.448296546936035,0.038307227194309235,3.44765043258667
3.1615076065063477,-10.409989356994629,-0.038307227194309235,3.4093432426452637
3.1637160778045654,-10.400412559509277,-0.05746084079146385,3.4572272300720215
3.1659095287323,-10.371682167053223,-0.12449848651885986,3.4189200401306152
3.1670141220092773,-10.314221382141113,-0.08619125932455063,3.4189200401306152
3.1691930294036865,-10.323798179626465,-0.15322890877723694,3.361459255218506
3.171363115310669,-10.27591323852539,-0.17238251864910126,3.4955344200134277
3.17353892326355,-10.256759643554688,-0.2106897532939911,3.3518824577331543
3.1757090091705322,-10.180145263671875,-0.26815059781074524,3.3901896476745605
3.176805019378662,-10.170568466186523,-0.2968810200691223,3.4093432426452637
3.1789777278900146,-10.180145263671875,-0.4118026793003082,3.3518824577331543
3.181147336959839,-10.113107681274414,-0.49799394607543945,3.361459255218506
3.183323621749878,-10.074800491333008,-0.49799394607543945,3.332728862762451
3.185495138168335,-10.065223693847656,-0.6033388376235962,3.361459255218506
3.187669515609741,-9.931148529052734,-0.6607996821403503,3.2848446369171143
3.188774347305298,-9.940725326538086,-0.7086837291717529,3.246537446975708
3.190945625305176,-9.959878921508789,-0.7661445140838623,3.246537446975708
3.193115711212158,-9.873687744140625,-0.8523358106613159,3.265691041946411
3.19529390335083,-9.84495735168457,-0.9193734526634216,3.227383852005005
3.19638991355896,-9.797073364257812,-1.0534487962722778,3.2369606494903564
3.1985607147216797,-9.77791976928711,-1.1109095811843872,3.2178070545196533
3.200731039047241,-9.730035781860352,-1.1971008777618408,3.1699230670928955
3.2029006481170654,-9.66299819946289,-1.2641384601593018,3.093308687210083
3.2050724029541016,-9.634267807006836,-1.359906554222107,3.179499864578247
3.2072439193725586,-9.557653427124023,-1.4652514457702637,3.1699230670928955
3.2083396911621094,-9.509769439697266,-1.599326729774475,3.1507694721221924
3.2105157375335693,-9.528923034667969,-1.6280571222305298,3.0837318897247314
3.212686061859131,-9.442731857299805,-1.7046716213226318,3.1220390796661377
3.2148597240448,-9.41400146484375,-1.8100165128707886,3.1507694721221924
3.2170286178588867,-9.366117477416992,-1.9153614044189453,3.1316158771514893
3.2181262969970703,-9.337387084960938,-2.0015525817871094,3.093308687210083
3.220304250717163,-9.299078941345215,-2.078166961669922,3.1028854846954346
3.2224717140197754,-9.21288776397705,-2.183511972427368,3.026270866394043
3.224644899368286,-9.165003776550293,-2.279279947280884,3.112462282180786
3.2257394790649414,-9.069235801696777,-2.3558945655822754,3.0837318897247314
3.2279064655303955,-9.011775016784668,-2.451662540435791,3.07415509223938
3.2300806045532227,-8.973467826843262,-2.5474305152893066,3.0358476638793945
3.2322516441345215,-8.935160636901855,-2.5953147411346436,3.026270866394043
3.234426259994507,-8.820239067077637,-2.691082715988159,2.978386878967285
3.2365992069244385,-8.78193187713623,-2.7676970958709717,2.9305028915405273
3.23769474029541,-8.676587104797363,-2.853888511657715,2.920926094055176
3.239868402481079,-8.638279914855957,-2.9305028915405273,2.9496564865112305
3.242037773132324,-8.580819129943848,-2.978386878967285,2.8634653091430664
3.244206666946411,-8.494627952575684,-3.064578056335449,2.892195701599121
3.246382713317871,-8.40843677520752,-3.1699230670928955,2.8826189041137695
3.247478723526001,-8.35097599029541,-3.227383852005005,2.8155810832977295
3.249648094177246,-8.341399192810059,-3.2561142444610596,2.7772738933563232
