t,accel_x,accel_y,accel_z
0.18018460273742676,-8.35097599029541,-1.4652514457702637,-2.231395959854126
0.18142390251159668,-8.78193187713623,-1.5514427423477173,-2.5761611461639404
0.1825551986694336,-8.465897560119629,-1.436521053314209,-2.1547815799713135
0.18481969833374023,-8.724471092224121,-1.5418659448623657,-2.432508945465088
0.18704605102539062,-8.628703117370605,-1.4652514457702637,-2.3367409706115723
0.18818211555480957,-8.552088737487793,-1.4844050407409668,-2.4899697303771973
0.19034051895141602,-8.59997272491455,-1.3982137441635132,-2.164358377456665
0.19248414039611816,-8.65743350982666,-1.5514427423477173,-2.432508945465088
0.19462347030639648,-8.571242332458496,-1.3982137441635132,-2.3271639347076416
0.19570398330688477,-8.724471092224121,-1.6184803247451782,-2.4899697303771973
0.19786715507507324,-8.619126319885254,-1.3694833517074585,-2.2601263523101807
0.20003962516784668,-8.53293514251709,-1.5418659448623657,-2.403778553009033
0.20220708847045898,-8.676587104797363,-1.4460978507995605,-2.403778553009033
0.2044053077697754,-8.580819129943848,-1.5131354331970215,-2.3558945655822754
0.2065715789794922,-8.667010307312012,-1.50355863571167,-2.346317768096924
0.20765280723571777,-8.542511940002441,-1.522712230682373,-2.298433542251587
0.20979547500610352,-8.676587104797363,-1.4460978507995605,-2.38462495803833
0.21193861961364746,-8.552088737487793,-1.3407529592514038,-2.298433542251587
0.21407794952392578,-8.743624687194824,-1.599326729774475,-2.585737943649292
0.21625638008117676,-8.418013572692871,-1.3886369466781616,-2.183511972427368
0.2184300422668457,-8.71489429473877,-1.6089035272598267,-2.1547815799713135
0.2195284366607666,-8.619126319885254,-1.3311761617660522,-2.3367409706115723
0.22172164916992188,-8.609549522399902,-1.580173134803772,-2.63362193107605
0.22390222549438477,-8.647856712341309,-1.4269442558288574,-2.2697031497955322
0.22607159614562988,-8.513781547546387,-1.5418659448623657,-2.183511972427368
0.22722649574279785,-8.638279914855957,-1.4173674583435059,-2.2601263523101807
0.2294600009918213,-8.40843677520752,-1.50355863571167,-2.346317768096924
0.2316126823425293,-8.848969459533691,-1.4269442558288574,-2.5953147411346436
0.23381447792053223,-8.370129585266113,-1.4748282432556152,-2.1930887699127197
0.234910249710083,-8.762778282165527,-1.5514427423477173,-2.38462495803833
0.23707079887390137,-8.47547435760498,-1.4077905416488647,-2.097320795059204
0.2392432689666748,-8.5903959274292,-1.4652514457702637,-2.63362193107605
0.24144816398620605,-8.667010307312012,-1.4652514457702637,-2.4133553504943848
0.24368858337402344,-8.494627952575684,-1.4844050407409668,-2.38462495803833
0.244797945022583,-8.695740699768066,-1.455674648284912,-2.2026655673980713
0.24701404571533203,-8.427590370178223,-1.4652514457702637,-2.3367409706115723
0.24918818473815918,-8.695740699768066,-1.4748282432556152,-2.4612393379211426
0.25139784812927246,-8.485051155090332,-1.4939818382263184,-2.451662540435791
0.25356245040893555,-8.695740699768066,-1.4460978507995605,-2.3367409706115723
0.25464868545532227,-8.580819129943848,-1.436521053314209,-2.365471363067627
0.2568020820617676,-8.561665534973145,-1.5322890281677246,-2.346317768096924
0.2589695453643799,-8.542511940002441,-1.4077905416488647,-2.346317768096924
0.2611243724822998,-8.542511940002441,-1.522712230682373,-2.432508945465088
0.2633206844329834,-8.65743350982666,-1.436521053314209,-2.5282769203186035
0.26551151275634766,-8.437167167663574,-1.50355863571167,-2.145204782485962
0.2666294574737549,-8.734047889709473,-1.4173674583435059,-2.403778553009033
0.26882171630859375,-8.427590370178223,-1.4460978507995605,-2.2409727573394775
0.27100515365600586,-8.686163902282715,-1.5131354331970215,-2.6144683361053467
0.2731778621673584,-8.47547435760498,-1.4460978507995605,-2.403778553009033
0.2742726802825928,-8.619126319885254,-1.5131354331970215,-2.2601263523101807
0.27644777297973633,-8.638279914855957,-1.4748282432556152,-2.1930887699127197
0.278597354888916,-8.59997272491455,-1.5610195398330688,-2.5474305152893066
0.28073978424072266,-8.47547435760498,-1.3694833517074585,-2.3558945655822754
0.28288769721984863,-8.552088737487793,-1.5610195398330688,-2.3558945655822754
0.2850668430328369,-8.609549522399902,-1.3694833517074585,-2.298433542251587
0.2862560749053955,-8.47547435760498,-1.5514427423477173,-2.4612393379211426
0.28842949867248535,-8.695740699768066,-1.4939818382263184,-2.451662540435791
0.29059624671936035,-8.504204750061035,-1.4652514457702637,-2.279279947280884
0.2927701473236084,-8.552088737487793,-1.436521053314209,-2.3558945655822754
0.293865442276001,-8.542511940002441,-1.5514427423477173,-2.557007312774658
0.2960317134857178,-8.552088737487793,-1.436521053314209,-2.0877439975738525
0.2982046604156494,-8.877699851989746,-1.5131354331970215,-2.499546527862549
0.300365686416626,-8.341399192810059,-1.4269442558288574,-2.5474305152893066
0.3025050163269043,-8.571242332458496,-1.4748282432556152,-2.365471363067627
0.30358147621154785,-8.580819129943848,-1.455674648284912,-2.183511972427368
0.3057262897491455,-8.571242332458496,-1.4652514457702637,-2.4899697303771973
0.3078622817993164,-8.5903959274292,-1.50355863571167,-2.537853717803955
0.31003570556640625,-8.686163902282715,-1.4939818382263184,-2.2409727573394775
0.3121814727783203,-8.65743350982666,-1.3311761617660522,-2.3750481605529785
0.3143503665924072,-8.341399192810059,-1.599326729774475,-2.2601263523101807
0.3154902458190918,-8.772355079650879,-1.3982137441635132,-2.4803929328918457
0.3177056312561035,-8.542511940002441,-1.4077905416488647,-2.2888567447662354
0.31990885734558105,-8.695740699768066,-1.5705963373184204,-2.5282769203186035
0.32222747802734375,-8.47547435760498,-1.4269442558288574,-2.183511972427368
0.3233058452606201,-8.571242332458496,-1.436521053314209,-2.2409727573394775
0.32544660568237305,-8.561665534973145,-1.455674648284912,-2.2026655673980713
0.3276090621948242,-8.59997272491455,-1.4460978507995605,-2.853888511657715
0.3297858238220215,-8.580819129943848,-1.4748282432556152,-2.298433542251587
0.33194518089294434,-8.695740699768066,-1.599326729774475,-2.0207061767578125
0.33304548263549805,-8.638279914855957,-1.3120225667953491,-2.499546527862549
0.33524155616760254,-8.33182144165039,-1.6184803247451782,-2.604891538619995
0.3374793529510498,-8.887276649475098,-1.4652514457702637,-2.537853717803955
0.3396780490875244,-8.341399192810059,-1.3982137441635132,-2.0877439975738525
0.34189867973327637,-8.772355079650879,-1.4844050407409668,-2.5665841102600098
0.34300851821899414,-8.456320762634277,-1.5418659448623657,-2.3750481605529785
0.34519410133361816,-8.609549522399902,-1.436521053314209,-2.403778553009033
0.3473494052886963,-8.705317497253418,-1.4748282432556152,-2.3271639347076416
0.3495206832885742,-8.418013572692871,-1.5131354331970215,-2.6431987285614014
0.3516826629638672,-8.65743350982666,-1.4460978507995605,-2.097320795059204
0.35276365280151367,-8.638279914855957,-1.522712230682373,-2.346317768096924
0.35489726066589355,-8.571242332458496,-1.4173674583435059,-2.4899697303771973
0.35707807540893555,-8.485051155090332,-1.5514427423477173,-2.518700122833252
0.35930347442626953,-8.695740699768066,-1.436521053314209,-2.365471363067627
0.36043787002563477,-8.456320762634277,-1.522712230682373,-2.126051187515259
0.3626370429992676,-8.762778282165527,-1.5705963373184204,-2.5953147411346436
0.3648355007171631,-8.504204750061035,-1.4652514457702637,-2.3271639347076416
0.3670532703399658,-8.647856712341309,-1.436521053314209,-2.5282769203186035
0.3693094253540039,-8.59997272491455,-1.4173674583435059,-2.183511972427368
0.3703896999359131,-8.65743350982666,-1.50355863571167,-2.5761611461639404
0.3725404739379883,-8.5903959274292,-1.5514427423477173,-2.145204782485962
0.3747069835662842,-8.5903959274292,-1.4077905416488647,-2.298433542251587
0.37685585021972656,-8.65743350982666,-1.4844050407409668,-2.4133553504943848
0.37903857231140137,-8.40843677520752,-1.4173674583435059,-2.3367409706115723
0.380155086517334,-8.877699851989746,-1.5418659448623657,-2.3558945655822754
0.3823204040527344,-8.418013572692871,-1.436521053314209,-2.183511972427368
0.38448381423950195,-8.686163902282715,-1.5514427423477173,-2.365471363067627
0.38664913177490234,-8.513781547546387,-1.4460978507995605,-2.31758713722229
0.38882923126220703,-8.638279914855957,-1.4844050407409668,-2.5282769203186035
0.38992953300476074,-8.647856712341309,-1.5418659448623657,-2.1930887699127197
0.39216065406799316,-8.523358345031738,-1.4844050407409668,-2.499546527862549
0.3943002223968506,-8.638279914855957,-1.5418659448623657,-2.0877439975738525
0.39643335342407227,-8.523358345031738,-1.359906554222107,-2.451662540435791
0.39856600761413574,-8.647856712341309,-1.5322890281677246,-2.6240451335906982
0.3996400833129883,-8.78193187713623,-1.50355863571167,-2.3080103397369385
0.4017796516418457,-8.465897560119629,-1.4652514457702637,-2.097320795059204
0.40393948554992676,-8.724471092224121,-1.522712230682373,-2.4229321479797363
0.40610814094543457,-8.53293514251709,-1.3311761617660522,-2.403778553009033
0.40827155113220215,-8.705317497253418,-1.5610195398330688,-2.4612393379211426
0.410433292388916,-8.580819129943848,-1.4460978507995605,-2.2888567447662354
0.41156935691833496,-8.705317497253418,-1.580173134803772,-2.2697031497955322
0.4137990474700928,-8.628703117370605,-1.436521053314209,-2.3942017555236816
0.41599273681640625,-8.561665534973145,-1.522712230682373,-2.604891538619995
0.41816210746765137,-8.734047889709473,-1.4269442558288574,-2.3367409706115723
0.41924571990966797,-8.47547435760498,-1.5322890281677246,-2.2409727573394775
0.42140674591064453,-8.65743350982666,-1.4460978507995605,-2.499546527862549
0.42356014251708984,-8.619126319885254,-1.4844050407409668,-2.2409727573394775
0.4257383346557617,-8.695740699768066,-1.5131354331970215,-2.585737943649292
0.42795729637145996,-8.552088737487793,-1.4844050407409668,-2.231395959854126
0.42906665802001953,-8.810662269592285,-1.50355863571167,-2.5761611461639404
0.4312779903411865,-8.523358345031738,-1.4652514457702637,-2.2026655673980713
0.43349647521972656,-8.724471092224121,-1.599326729774475,-2.585737943649292
0.43570828437805176,-8.5903959274292,-1.4173674583435059,-2.0398597717285156
0.43788862228393555,-8.686163902282715,-1.455674648284912,-2.5474305152893066
0.43898582458496094,-8.65743350982666,-1.5131354331970215,-2.403778553009033
0.44113731384277344,-8.628703117370605,-1.5322890281677246,-2.518700122833252
0.44327473640441895,-8.667010307312012,-1.4844050407409668,-2.049436569213867
0.44543004035949707,-8.638279914855957,-1.5322890281677246,-2.4133553504943848
0.4475672245025635,-8.667010307312012,-1.4173674583435059,-2.499546527862549
0.44864487648010254,-8.5903959274292,-1.50355863571167,-2.279279947280884
0.4508240222930908,-8.83939266204834,-1.4844050407409668,-2.4899697303771973
0.4529891014099121,-8.513781547546387,-1.522712230682373,-2.049436569213867
0.4551677703857422,-8.65743350982666,-1.5131354331970215,-2.691082715988159
0.4573338031768799,-8.456320762634277,-1.50355863571167,-2.078166961669922
0.4595184326171875,-8.9064302444458,-1.436521053314209,-2.5474305152893066
0.4606363773345947,-8.427590370178223,-1.4939818382263184,-2.0398597717285156
0.46280741691589355,-8.877699851989746,-1.5322890281677246,-2.7676970958709717
0.4649620056152344,-8.456320762634277,-1.4269442558288574,-1.8291701078414917
0.46713876724243164,-8.791508674621582,-1.5514427423477173,-2.5953147411346436
0.4693024158477783,-8.53293514251709,-1.436521053314209,-2.279279947280884
0.47038769721984863,-8.65743350982666,-1.5418659448623657,-2.5665841102600098
0.472564697265625,-8.772355079650879,-1.5322890281677246,-2.1356279850006104
0.47475099563598633,-8.427590370178223,-1.5131354331970215,-2.5282769203186035
0.4769730567932129,-8.829815864562988,-1.50355863571167,-1.9823989868164062
0.4791569709777832,-8.40843677520752,-1.3886369466781616,-2.5474305152893066
0.4802548885345459,-8.686163902282715,-1.580173134803772,-2.604891538619995
0.4824240207672119,-8.59997272491455,-1.4748282432556152,-2.0590133666992188
0.48460841178894043,-8.734047889709473,-1.4173674583435059,-2.365471363067627
0.48676323890686035,-8.580819129943848,-1.4844050407409668,-2.183511972427368
0.4879140853881836,-8.59997272491455,-1.3982137441635132,-2.5665841102600098
0.4900684356689453,-8.5903959274292,-1.4748282432556152,-2.2601263523101807
0.4922194480895996,-8.705317497253418,-1.50355863571167,-2.2601263523101807
0.49437665939331055,-8.647856712341309,-1.522712230682373,-2.3750481605529785
0.49590539932250977,-8.542511940002441,-1.50355863571167,-2.4133553504943848
0.4980893135070801,-8.753201484680176,-1.436521053314209,-2.298433542251587
0.5002682209014893,-8.561665534973145,-1.436521053314209,-2.346317768096924
0.5024576187133789,-8.695740699768066,-1.4939818382263184,-2.5282769203186035
0.5035521984100342,-8.676587104797363,-1.5131354331970215,-2.2601263523101807
0.5057275295257568,-8.71489429473877,-1.4748282432556152,-2.2888567447662354
0.507925271987915,-8.465897560119629,-1.4939818382263184,-2.4612393379211426
0.5100936889648438,-8.772355079650879,-1.5418659448623657,-2.432508945465088
0.5122954845428467,-8.504204750061035,-1.359906554222107,-2.2409727573394775
0.5133867263793945,-8.65743350982666,-1.580173134803772,-2.470816135406494
0.5155603885650635,-8.743624687194824,-1.4748282432556152,-2.3080103397369385
0.5177931785583496,-8.65743350982666,-1.5418659448623657,-2.3942017555236816
0.5199949741363525,-8.53293514251709,-1.359906554222107,-2.2601263523101807
0.5221724510192871,-8.705317497253418,-1.5514427423477173,-2.75812029838562
0.5232713222503662,-8.542511940002441,-1.4077905416488647,-1.9153614044189453
0.5254437923431396,-8.772355079650879,-1.5418659448623657,-2.4612393379211426
0.5276367664337158,-8.580819129943848,-1.4748282432556152,-2.2026655673980713
0.5298309326171875,-8.619126319885254,-1.436521053314209,-2.585737943649292
0.531991720199585,-8.523358345031738,-1.5418659448623657,-2.3367409706115723
0.5330748558044434,-8.705317497253418,-1.4460978507995605,-2.518700122833252
0.5352118015289307,-8.456320762634277,-1.5131354331970215,-1.9057846069335938
0.5373709201812744,-8.734047889709473,-1.4939818382263184,-2.557007312774658
0.5395121574401855,-8.59997272491455,-1.4748282432556152,-2.499546527862549
0.5416789054870605,-8.571242332458496,-1.4652514457702637,-2.2888567447662354
0.5438508987426758,-8.71489429473877,-1.5418659448623657,-2.212242364883423
0.5449490547180176,-8.485051155090332,-1.3982137441635132,-2.403778553009033
0.5471148490905762,-8.734047889709473,-1.5705963373184204,-2.164358377456665
0.5493264198303223,-8.695740699768066,-1.4173674583435059,-2.7293899059295654
0.5515389442443848,-8.494627952575684,-1.3982137441635132,-2.3942017555236816
0.5537433624267578,-8.772355079650879,-1.5897499322891235,-2.1547815799713135
0.5548443794250488,-8.456320762634277,-1.359906554222107,-2.3942017555236816
0.556999683380127,-8.65743350982666,-1.50355863571167,-2.5665841102600098
0.5591714382171631,-8.695740699768066,-1.4460978507995605,-2.231395959854126
0.5613498687744141,-8.580819129943848,-1.4460978507995605,-2.3942017555236816
0.5624363422393799,-8.5903959274292,-1.4173674583435059,-2.3942017555236816
0.5646145343780518,-8.542511940002441,-1.522712230682373,-2.1356279850006104
0.5668239593505859,-8.791508674621582,-1.4269442558288574,-2.518700122833252
0.5690431594848633,-8.35097599029541,-1.4460978507995605,-2.3367409706115723
0.5712637901306152,-8.801085472106934,-1.5322890281677246,-2.499546527862549
0.5723752975463867,-8.53293514251709,-1.3982137441635132,-2.2026655673980713
0.574561595916748,-8.571242332458496,-1.50355863571167,-2.3558945655822754
0.5767781734466553,-8.686163902282715,-1.50355863571167,-2.4229321479797363
0.5789601802825928,-8.47547435760498,-1.3886369466781616,-2.5474305152893066
0.5800659656524658,-8.705317497253418,-1.522712230682373,-2.279279947280884
0.5822129249572754,-8.542511940002441,-1.3694833517074585,-2.403778553009033
0.5843873023986816,-8.53293514251709,-1.5610195398330688,-2.346317768096924
0.5866811275482178,-8.686163902282715,-1.4460978507995605,-2.4420857429504395
0.5888948440551758,-8.53293514251709,-1.455674648284912,-2.518700122833252
0.5900108814239502,-8.5903959274292,-1.455674648284912,-2.4420857429504395
0.5922186374664307,-8.638279914855957,-1.522712230682373,-2.231395959854126
0.5944488048553467,-8.59997272491455,-1.436521053314209,-2.3750481605529785
0.5966606140136719,-8.552088737487793,-1.4460978507995605,-2.499546527862549
0.5977692604064941,-8.676587104797363,-1.455674648284912,-2.5665841102600098
0.5999774932861328,-8.523358345031738,-1.4939818382263184,-2.0877439975738525
0.6021478176116943,-8.53293514251709,-1.4460978507995605,-2.451662540435791
0.6043040752410889,-8.695740699768066,-1.4460978507995605,-2.4612393379211426
0.6064703464508057,-8.609549522399902,-1.4844050407409668,-2.557007312774658
0.6075618267059326,-8.465897560119629,-1.3886369466781616,-2.3271639347076416
0.6097052097320557,-8.71489429473877,-1.5322890281677246,-2.31758713722229
0.6118803024291992,-8.465897560119629,-1.359906554222107,-2.250549554824829
0.6140487194061279,-8.743624687194824,-1.580173134803772,-2.691082715988159
0.6162126064300537,-8.504204750061035,-1.3982137441635132,-2.2888567447662354
0.6173057556152344,-8.65743350982666,-1.5418659448623657,-2.365471363067627
0.6194698810577393,-8.523358345031738,-1.4077905416488647,-2.2697031497955322
0.6216323375701904,-8.494627952575684,-1.5514427423477173,-2.38462495803833
0.6239361763000488,-8.676587104797363,-1.359906554222107,-2.432508945465088
0.6261427402496338,-8.561665534973145,-1.5705963373184204,-2.5091233253479004
0.6272232532501221,-8.59997272491455,-1.4269442558288574,-2.2026655673980713
0.6293759346008301,-8.542511940002441,-1.4652514457702637,-2.3558945655822754
0.6315338611602783,-8.724471092224121,-1.5131354331970215,-2.6240451335906982
0.6337332725524902,-8.370129585266113,-1.436521053314209,-2.250549554824829
0.6359193325042725,-8.762778282165527,-1.5514427423477173,-2.5665841102600098
0.6370201110839844,-8.418013572692871,-1.359906554222107,-2.145204782485962
0.639190673828125,-8.686163902282715,-1.599326729774475,-2.4612393379211426
0.6413652896881104,-8.65743350982666,-1.4077905416488647,-2.5282769203186035
0.6435363292694092,-8.47547435760498,-1.455674648284912,-2.212242364883423
0.6458137035369873,-8.743624687194824,-1.522712230682373,-2.5282769203186035
0.6469132900238037,-8.303091049194336,-1.3503297567367554,-2.31758713722229
0.649071455001831,-8.83939266204834,-1.5705963373184204,-2.537853717803955
0.6512138843536377,-8.427590370178223,-1.4748282432556152,-2.0207061767578125
0.65338134765625,-8.676587104797363,-1.4077905416488647,-2.873042106628418
0.6544628143310547,-8.40843677520752,-1.5610195398330688,-2.1356279850006104
0.6566073894500732,-8.705317497253418,-1.4269442558288574,-2.4229321479797363
0.6587755680084229,-8.485051155090332,-1.4748282432556152,-2.3367409706115723
0.6609606742858887,-8.609549522399902,-1.5514427423477173,-2.3750481605529785
0.6631360054016113,-8.628703117370605,-1.455674648284912,-2.4133553504943848
0.6653041839599609,-8.360552787780762,-1.436521053314209,-2.3367409706115723
0.6664011478424072,-8.848969459533691,-1.5610195398330688,-2.403778553009033
0.6722214221954346,-8.283937454223633,-1.4652514457702637,-2.31758713722229
0.6733291149139404,-8.810662269592285,-1.50355863571167,-2.403778553009033
0.6744029521942139,-8.456320762634277,-1.4460978507995605,-2.3080103397369385
0.6755034923553467,-8.571242332458496,-1.4939818382263184,-2.4133553504943848
0.6765847206115723,-8.647856712341309,-1.4748282432556152,-2.4229321479797363
0.6787219047546387,-8.504204750061035,-1.5514427423477173,-2.2218191623687744
0.6809461116790771,-8.695740699768066,-1.4077905416488647,-2.557007312774658
0.6820492744445801,-8.370129585266113,-1.4748282432556152,-2.3367409706115723
0.6842141151428223,-8.9064302444458,-1.4844050407409668,-2.403778553009033
0.686375617980957,-8.274360656738281,-1.4460978507995605,-2.2888567447662354
0.6885426044464111,-8.743624687194824,-1.5897499322891235,-2.4229321479797363
0.6907038688659668,-8.552088737487793,-1.4077905416488647,-2.279279947280884
0.6928694248199463,-8.5903959274292,-1.5418659448623657,-2.4803929328918457
0.6939640045166016,-8.571242332458496,-1.4269442558288574,-2.3750481605529785
0.6960973739624023,-8.580819129943848,-1.522712230682373,-2.2601263523101807
0.6982333660125732,-8.724471092224121,-1.436521053314209,-2.403778553009033
0.70039963722229,-8.33182144165039,-1.5610195398330688,-2.3367409706115723
0.7014946937561035,-8.848969459533691,-1.3886369466781616,-2.403778553009033
0.7036435604095459,-8.35097599029541,-1.4652514457702637,-2.164358377456665
0.7058055400848389,-8.820239067077637,-1.5610195398330688,-2.6431987285614014
0.708000659942627,-8.465897560119629,-1.436521053314209,-2.31758713722229
0.7101850509643555,-8.609549522399902,-1.5514427423477173,-2.212242364883423
0.7123768329620361,-8.638279914855957,-1.4077905416488647,-2.2218191623687744
0.7134876251220703,-8.456320762634277,-1.5322890281677246,-2.537853717803955
0.7156920433044434,-8.71489429473877,-1.4939818382263184,-2.2409727573394775
0.7178516387939453,-8.561665534973145,-1.50355863571167,-2.4229321479797363
0.7200174331665039,-8.619126319885254,-1.4844050407409668,-2.164358377456665
0.7210946083068848,-8.47547435760498,-1.455674648284912,-2.3367409706115723
0.7232449054718018,-8.753201484680176,-1.455674648284912,-2.5474305152893066
0.7253892421722412,-8.456320762634277,-1.5131354331970215,-2.346317768096924
0.7275760173797607,-8.71489429473877,-1.5322890281677246,-2.451662540435791
0.7297844886779785,-8.523358345031738,-1.4269442558288574,-2.0590133666992188
0.731987714767456,-8.734047889709473,-1.5514427423477173,-2.604891538619995
0.7330989837646484,-8.485051155090332,-1.4269442558288574,-2.4612393379211426
0.735276460647583,-8.571242332458496,-1.5610195398330688,-2.4612393379211426
0.7374758720397949,-8.734047889709473,-1.4269442558288574,-2.1930887699127197
0.7396538257598877,-8.494627952575684,-1.5418659448623657,-2.3750481605529785
0.7418272495269775,-8.638279914855957,-1.4844050407409668,-2.499546527862549
0.7429077625274658,-8.619126319885254,-1.4748282432556152,-2.1930887699127197
0.7450592517852783,-8.724471092224121,-1.4173674583435059,-2.5091233253479004
0.7471978664398193,-8.360552787780762,-1.5418659448623657,-2.1739351749420166
0.7493798732757568,-8.89685344696045,-1.4748282432556152,-2.5665841102600098
0.7515623569488525,-8.370129585266113,-1.4844050407409668,-2.0015525817871094
0.7527122497558594,-8.887276649475098,-1.5610195398330688,-2.6815059185028076
0.7549324035644531,-8.523358345031738,-1.3982137441635132,-2.2888567447662354
0.7573482990264893,-8.5903959274292,-1.5610195398330688,-2.4899697303771973
0.7595775127410889,-8.59997272491455,-1.4460978507995605,-1.9345149993896484
0.7606923580169678,-8.552088737487793,-1.4844050407409668,-2.652775526046753
0.7628967761993408,-8.59997272491455,-1.4077905416488647,-2.2218191623687744
0.7650697231292725,-8.772355079650879,-1.5610195398330688,-2.6815059185028076
0.7672362327575684,-8.418013572692871,-1.3886369466781616,-1.7334020137786865
0.7683391571044922,-8.676587104797363,-1.5322890281677246,-2.63362193107605
0.7705192565917969,-8.695740699768066,-1.4077905416488647,-2.2697031497955322
0.7726864814758301,-8.542511940002441,-1.6280571222305298,-2.6623523235321045
0.7748634815216064,-8.667010307312012,-1.3886369466781616,-2.1930887699127197
0.7770335674285889,-8.695740699768066,-1.5514427423477173,-2.4803929328918457
0.7781703472137451,-8.571242332458496,-1.4748282432556152,-2.1164743900299072
0.780339241027832,-8.686163902282715,-1.5418659448623657,-2.7006595134735107
0.782508134841919,-8.580819129943848,-1.4173674583435059,-2.183511972427368
0.784682035446167,-8.676587104797363,-1.5705963373184204,-2.499546527862549
0.7868497371673584,-8.53293514251709,-1.4460978507995605,-2.2026655673980713
0.7879509925842285,-8.695740699768066,-1.4939818382263184,-2.403778553009033
0.7901442050933838,-8.734047889709473,-1.4844050407409668,-2.346317768096924
0.7923297882080078,-8.485051155090332,-1.4844050407409668,-2.6144683361053467
0.7945082187652588,-8.695740699768066,-1.5131354331970215,-2.250549554824829
0.7956104278564453,-8.686163902282715,-1.4460978507995605,-2.1930887699127197
0.7977762222290039,-8.571242332458496,-1.5514427423477173,-2.4229321479797363
0.7999494075775146,-8.686163902282715,-1.4460978507995605,-2.4612393379211426
0.802117109298706,-8.686163902282715,-1.5514427423477173,-2.3750481605529785
0.8042919635772705,-8.513781547546387,-1.4077905416488647,-2.145204782485962
0.8064572811126709,-8.667010307312012,-1.5514427423477173,-2.403778553009033
0.8075523376464844,-8.667010307312012,-1.3886369466781616,-2.3080103397369385
0.8097240924835205,-8.743624687194824,-1.5897499322891235,-2.4899697303771973
0.8118846416473389,-8.561665534973145,-1.37906014919281,-2.3558945655822754
0.8140575885772705,-8.561665534973145,-1.5897499322891235,-2.164358377456665
0.8162360191345215,-8.820239067077637,-1.436521053314209,-2.31758713722229
0.8173274993896484,-8.523358345031738,-1.522712230682373,-2.298433542251587
0.8194906711578369,-8.83939266204834,-1.50355863571167,-2.6144683361053467
0.8216559886932373,-8.418013572692871,-1.4460978507995605,-2.1930887699127197
0.8238534927368164,-8.820239067077637,-1.4939818382263184,-2.432508945465088
0.8260478973388672,-8.53293514251709,-1.4748282432556152,-1.9919757843017578
0.827157735824585,-8.78193187713623,-1.5322890281677246,-2.786850690841675
0.8293764591217041,-8.609549522399902,-1.4748282432556152,-2.4229321479797363
0.8315844535827637,-8.561665534973145,-1.6089035272598267,-2.1930887699127197
0.8337743282318115,-8.753201484680176,-1.359906554222107,-2.030282974243164
0.8348863124847412,-8.437167167663574,-1.522712230682373,-2.5282769203186035
0.8370790481567383,-8.791508674621582,-1.4844050407409668,-2.3942017555236816
0.8392531871795654,-8.638279914855957,-1.4652514457702637,-2.499546527862549
0.8414409160614014,-8.724471092224121,-1.50355863571167,-2.2697031497955322
0.8436126708984375,-8.465897560119629,-1.5322890281677246,-2.231395959854126
0.8457884788513184,-8.9064302444458,-1.4939818382263184,-2.5761611461639404
0.8468823432922363,-8.47547435760498,-1.4652514457702637,-2.279279947280884
0.8490490913391113,-8.65743350982666,-1.580173134803772,-2.5091233253479004
0.8512260913848877,-8.695740699768066,-1.37906014919281,-2.298433542251587
0.8534069061279297,-8.628703117370605,-1.5418659448623657,-2.145204782485962
0.8555834293365479,-8.791508674621582,-1.522712230682373,-2.4612393379211426
0.856691837310791,-8.379706382751465,-1.455674648284912,-2.432508945465088
0.8588671684265137,-8.925583839416504,-1.522712230682373,-2.279279947280884
0.8610401153564453,-8.456320762634277,-1.4173674583435059,-2.231395959854126
0.8632099628448486,-8.724471092224121,-1.5610195398330688,-2.63362193107605
0.8643155097961426,-8.580819129943848,-1.5131354331970215,-2.145204782485962
0.8664941787719727,-8.628703117370605,-1.4173674583435059,-2.3080103397369385
0.8686721324920654,-8.619126319885254,-1.4173674583435059,-2.4420857429504395
0.8708992004394531,-8.5903959274292,-1.5514427423477173,-2.38462495803833
0.8730883598327637,-8.78193187713623,-1.4460978507995605,-2.2697031497955322
0.8741888999938965,-8.5903959274292,-1.580173134803772,-2.3080103397369385
0.8763699531555176,-8.71489429473877,-1.3694833517074585,-2.4133553504943848
0.8785409927368164,-8.504204750061035,-1.50355863571167,-2.4612393379211426
0.8807220458984375,-8.743624687194824,-1.4269442558288574,-2.38462495803833
0.8828952312469482,-8.647856712341309,-1.6280571222305298,-2.298433542251587
0.8840024471282959,-8.638279914855957,-1.4748282432556152,-2.3080103397369385
0.8861827850341797,-8.628703117370605,-1.436521053314209,-2.3367409706115723
0.8883581161499023,-8.552088737487793,-1.4939818382263184,-2.5282769203186035
0.8905673027038574,-8.65743350982666,-1.4173674583435059,-2.470816135406494
0.8916893005371094,-8.724471092224121,-1.5897499322891235,-2.183511972427368
0.8938684463500977,-8.65743350982666,-1.4269442558288574,-2.3942017555236816
0.8960437774658203,-8.53293514251709,-1.4939818382263184,-2.4229321479797363
0.898212194442749,-8.65743350982666,-1.4652514457702637,-2.518700122833252
0.9003815650939941,-8.53293514251709,-1.4748282432556152,-2.2409727573394775
0.9025604724884033,-8.753201484680176,-1.50355863571167,-2.4420857429504395
0.9036540985107422,-8.456320762634277,-1.5418659448623657,-2.212242364883423
0.9058234691619873,-8.638279914855957,-1.455674648284912,-2.585737943649292
0.9080016613006592,-8.571242332458496,-1.4652514457702637,-2.145204782485962
0.9101724624633789,-8.71489429473877,-1.4748282432556152,-2.604891538619995
0.9112679958343506,-8.47547435760498,-1.4269442558288574,-2.31758713722229
0.9134306907653809,-8.571242332458496,-1.5705963373184204,-2.4420857429504395
0.9156360626220703,-8.78193187713623,-1.3886369466781616,-2.1739351749420166
0.917839527130127,-8.40843677520752,-1.4652514457702637,-2.3750481605529785
0.9200310707092285,-8.868123054504395,-1.4844050407409668,-2.557007312774658
0.9222230911254883,-8.389283180236816,-1.436521053314209,-2.250549554824829
0.9233262538909912,-8.791508674621582,-1.5705963373184204,-2.3271639347076416
0.9255123138427734,-8.379706382751465,-1.3886369466781616,-2.279279947280884
0.9276838302612305,-8.638279914855957,-1.522712230682373,-2.518700122833252
0.9298272132873535,-8.5903959274292,-1.4460978507995605,-2.0877439975738525
0.9309399127960205,-8.724471092224121,-1.4748282432556152,-2.7006595134735107
0.9331164360046387,-8.571242332458496,-1.4844050407409668,-2.2409727573394775
0.9353048801422119,-8.504204750061035,-1.5322890281677246,-2.2218191623687744
0.937506914138794,-8.647856712341309,-1.4269442558288574,-2.3367409706115723
0.9397177696228027,-8.446743965148926,-1.50355863571167,-2.557007312774658
0.940821647644043,-8.791508674621582,-1.5322890281677246,-2.4899697303771973
0.9430301189422607,-8.418013572692871,-1.4173674583435059,-2.0590133666992188
0.9452049732208252,-8.762778282165527,-1.455674648284912,-2.4803929328918457
0.947380781173706,-8.456320762634277,-1.522712230682373,-2.3750481605529785
0.9495604038238525,-8.647856712341309,-1.4460978507995605,-2.518700122833252
0.950653076171875,-8.504204750061035,-1.455674648284912,-2.2218191623687744
0.9528298377990723,-8.619126319885254,-1.4748282432556152,-2.451662540435791
0.955021858215332,-8.542511940002441,-1.5131354331970215,-2.3367409706115723
0.957209587097168,-8.59997272491455,-1.4652514457702637,-2.451662540435791
0.9583096504211426,-8.705317497253418,-1.4652514457702637,-2.4229321479797363
0.9604802131652832,-8.226476669311523,-1.4077905416488647,-2.432508945465088
0.9626510143280029,-8.820239067077637,-1.5514427423477173,-2.250549554824829
0.9648189544677734,-8.427590370178223,-1.3407529592514038,-2.2697031497955322
0.9669840335845947,-8.695740699768066,-1.599326729774475,-2.557007312774658
0.9691581726074219,-8.513781547546387,-1.3694833517074585,-2.537853717803955
0.9702517986297607,-8.504204750061035,-1.5418659448623657,-2.1930887699127197
0.9724256992340088,-8.762778282165527,-1.4173674583435059,-2.3558945655822754
0.9745914936065674,-8.26478385925293,-1.4269442558288574,-2.3367409706115723
0.9767570495605469,-8.916007041931152,-1.522712230682373,-2.7485435009002686
0.9789285659790039,-8.322244644165039,-1.3694833517074585,-2.049436569213867
0.9800212383270264,-8.772355079650879,-1.522712230682373,-2.5953147411346436
0.9821817874908447,-8.274360656738281,-1.292868971824646,-2.164358377456665
0.9843521118164062,-8.695740699768066,-1.6280571222305298,-2.537853717803955
0.9865133762359619,-8.686163902282715,-1.3311761617660522,-2.1356279850006104
0.9886834621429443,-8.571242332458496,-1.6089035272598267,-2.652775526046753
0.9908473491668701,-8.619126319885254,-1.2832920551300049,-2.097320795059204
0.9919412136077881,-8.485051155090332,-1.5418659448623657,-2.365471363067627
0.9941120147705078,-8.801085472106934,-1.359906554222107,-2.5474305152893066
0.996279239654541,-8.149862289428711,-1.580173134803772,-2.250549554824829
0.9984571933746338,-8.954314231872559,-1.436521053314209,-2.5474305152893066
0.9995639324188232,-8.255207061767578,-1.4269442558288574,-1.9345149993896484
1.007476568222046,-8.801085472106934,-1.5418659448623657,-2.8155810832977295
1.0086150169372559,-8.427590370178223,-1.4652514457702637,-2.2697031497955322
1.0097429752349854,-8.638279914855957,-1.522712230682373,-2.5091233253479004
1.0108428001403809,-8.571242332458496,-1.3982137441635132,-2.078166961669922
1.0119385719299316,-8.485051155090332,-1.5418659448623657,-2.7964274883270264
1.013040542602539,-8.848969459533691,-1.4173674583435059,-2.2697031497955322
1.0141396522521973,-8.465897560119629,-1.5322890281677246,-2.4229321479797363
1.0163090229034424,-8.40843677520752,-1.4652514457702637,-2.126051187515259
1.0174059867858887,-7.929595947265625,-1.522712230682373,-1.656787633895874
1.019578456878662,-8.485051155090332,-1.436521053314209,-1.4460978507995605
1.0217418670654297,-8.437167167663574,-1.455674648284912,-1.3407529592514038
1.0239109992980957,-8.609549522399902,-1.4939818382263184,-2.097320795059204
1.0260756015777588,-7.6997528076171875,-1.5131354331970215,-1.2258312702178955
1.0271673202514648,-7.115567684173584,-1.3886369466781616,-0.26815059781074524
1.0293376445770264,-6.493074893951416,-1.292868971824646,0.4405331015586853
1.0315017700195312,-6.493074893951416,-1.1971008777618408,-0.3256114423274994
1.0336782932281494,-7.738059997558594,-1.3024457693099976,-0.8810662031173706
1.0358490943908691,-7.8529815673828125,-1.2832920551300049,-1.4844050407409668
1.036947250366211,-8.101978302001953,-1.5705963373184204,-1.7334020137786865
1.0391216278076172,-7.402871608734131,-1.3982137441635132,-2.38462495803833
1.0412938594818115,-7.450755596160889,-1.4748282432556152,-2.9305028915405273
1.0434682369232178,-7.738059997558594,-1.5610195398330688,-3.6391866207122803
1.045638084411621,-8.02536392211914,-1.944091796875,-3.7924153804779053
1.0467338562011719,-8.283937454223633,-2.145204782485962,-3.3423056602478027
1.048910140991211,-7.757213592529297,-2.1547815799713135,-2.9017724990844727
1.0510773658752441,-7.173028469085693,-1.9536685943603516,-3.3231520652770996
1.0532433986663818,-6.885724067687988,-1.867477297782898,-3.7924153804779053
1.0554139614105225,-7.230489253997803,-1.8387469053268433,-3.936067581176758
1.0565087795257568,-7.575253963470459,-2.011129379272461,-3.8594532012939453
1.0586740970611572,-7.65186882019043,-2.126051187515259,-3.9169139862060547
1.0608577728271484,-7.536946773529053,-1.9345149993896484,-4.185064792633057
1.0630276203155518,-7.220912456512451,-1.742978811264038,-4.491522312164307
1.0652062892913818,-7.182605266571045,-1.7046716213226318,-4.4723687171936035
1.066303014755249,-7.268796443939209,-1.8195933103561401,-3.9456443786621094
1.0684726238250732,-7.2783732414245605,-1.8195933103561401,-3.4093432426452637
1.0706477165222168,-7.000645637512207,-1.7334020137786865,-3.3423056602478027
1.0728166103363037,-6.521805286407471,-1.4652514457702637,-3.533841609954834
1.074986219406128,-6.3973069190979,-1.4748282432556152,-3.4093432426452637
1.0760817527770996,-6.502651691436768,-1.7142484188079834,-2.892195701599121
1.0782499313354492,-6.636727333068848,-2.0015525817871094,-2.346317768096924
1.0804224014282227,-6.694188117980957,-1.9345149993896484,-2.1164743900299072
1.0825896263122559,-6.5696892738342285,-1.6855180263519287,-2.3080103397369385
1.0847663879394531,-6.406883716583252,-1.4748282432556152,-2.7006595134735107
1.0858659744262695,-6.502651691436768,-1.4652514457702637,-2.75812029838562
1.0880331993103027,-6.761225700378418,-1.5610195398330688,-2.470816135406494
1.0902085304260254,-6.742072105407715,-1.5418659448623657,-2.3558945655822754
1.0923762321472168,-6.588842868804932,-1.359906554222107,-2.6623523235321045
1.094550371170044,-6.540958881378174,-1.1779472827911377,-2.8826189041137695
1.0956454277038574,-6.665457725524902,-1.1779472827911377,-2.8443117141723633
1.0978155136108398,-6.866570472717285,-1.3982137441635132,-2.7293899059295654
1.0999841690063477,-7.038952827453613,-1.599326729774475,-2.63362193107605
1.1021511554718018,-7.010222434997559,-1.580173134803772,-2.7006595134735107
1.104318618774414,-6.8378400802612305,-1.4460978507995605,-2.9305028915405273
1.1054174900054932,-6.732495307922363,-1.4077905416488647,-3.179499864578247
1.1075866222381592,-6.9240312576293945,-1.436521053314209,-3.1699230670928955
1.109757423400879,-7.259219646453857,-1.4939818382263184,-3.0358476638793945
1.1119298934936523,-7.383718013763428,-1.4460978507995605,-3.2178070545196533
1.1140978336334229,-7.2783732414245605,-1.3215993642807007,-3.514688014984131
1.1151978969573975,-7.220912456512451,-1.3024457693099976,-3.667917013168335
1.117368221282959,-7.1251444816589355,-1.2066776752471924,-3.4189200401306152
1.1195333003997803,-7.144298076629639,-1.2258312702178955,-3.19865345954895
1.121704339981079,-7.134721279144287,-1.2449848651885986,-3.064578056335449
1.123870611190796,-7.115567684173584,-1.072602391242981,-2.9688100814819336
1.1260437965393066,-7.067683219909668,-0.9959878921508789,-2.911349296569824
1.1271405220031738,-6.933608055114746,-1.015141487121582,-2.8347349166870117
1.1293094158172607,-6.943184852600098,-1.0821791887283325,-2.604891538619995
1.1314842700958252,-6.9910688400268555,-1.072602391242981,-2.3367409706115723
1.1336543560028076,-6.9910688400268555,-0.9864110946655273,-2.279279947280884
1.1358263492584229,-6.856993675231934,-0.9002198576927185,-2.4899697303771973
1.136922836303711,-6.847416877746582,-0.8427590131759644,-2.5282769203186035
1.1390912532806396,-6.904877662658691,-0.7852981686592102,-2.31758713722229
1.1412653923034668,-7.15387487411499,-0.8906430602073669,-2.231395959854126
1.143430233001709,-7.287950038909912,-0.9002198576927185,-2.3271639347076416
1.145641565322876,-7.307103633880615,-0.8236053586006165,-2.557007312774658
1.1467366218566895,-7.259219646453857,-0.7757213711738586,-2.63362193107605
1.148902177810669,-7.1921820640563965,-0.727837324142456,-2.6815059185028076
1.1510717868804932,-7.182605266571045,-0.7948749661445618,-2.537853717803955
1.153290033340454,-7.307103633880615,-0.8044517636299133,-2.518700122833252
1.1555089950561523,-7.527369976043701,-0.7565677165985107,-2.5282769203186035
1.1566438674926758,-7.603984832763672,-0.7661445140838623,-2.82515811920166
1.1625213623046875,-7.6997528076171875,-0.7565677165985107,-2.940079689025879
1.1636385917663574,-7.843404769897461,-0.7852981686592102,-2.892195701599121
1.1647484302520752,-7.824251174926758,-0.8140285611152649,-2.9496564865112305
1.1658473014831543,-7.795520782470703,-0.7374141216278076,-3.00711727142334
1.166947841644287,-7.757213592529297,-0.7374141216278076,-3.0358476638793945
1.1691210269927979,-7.881711959838867,-0.6991068720817566,-2.9496564865112305
1.1702187061309814,-7.95832633972168,-0.7086837291717529,-2.8443117141723633
1.1723880767822266,-8.092401504516602,-0.7374141216278076,-2.738966703414917
1.174553394317627,-8.101978302001953,-0.727837324142456,-2.6240451335906982
1.1767244338989258,-7.987056732177734,-0.5841852426528931,-2.5953147411346436
1.1788921356201172,-7.805097579956055,-0.49799394607543945,-2.4133553504943848
1.1810626983642578,-7.661445617675781,-0.5267243981361389,-2.2218191623687744
1.1821677684783936,-7.805097579956055,-0.507570743560791,-1.8962076902389526
1.1843323707580566,-7.977479934692383,-0.5267243981361389,-1.867477297782898
1.186497688293457,-8.044517517089844,-0.49799394607543945,-2.0398597717285156
1.1886718273162842,-8.121131896972656,-0.47884035110473633,-2.0398597717285156
1.190840482711792,-8.08282470703125,-0.47884035110473633,-1.9345149993896484
1.1920051574707031,-7.977479934692383,-0.4692635238170624,-1.886630892753601
1.194178581237793,-7.939172744750977,-0.4692635238170624,-1.723825216293335
1.1963489055633545,-8.034940719604492,-0.4884171485900879,-1.6184803247451782
1.19858717918396,-8.121131896972656,-0.5363011956214905,-1.7046716213226318
1.2007741928100586,-8.293514251708984,-0.545877993106842,-1.8291701078414917
1.201876163482666,-8.456320762634277,-0.6416460275650024,-1.8962076902389526
1.204057216644287,-8.456320762634277,-0.6416460275650024,-1.8579005002975464
1.2062256336212158,-8.370129585266113,-0.6416460275650024,-1.9823989868164062
1.2084662914276123,-8.360552787780762,-0.5937620401382446,-2.0590133666992188
1.2095797061920166,-8.513781547546387,-0.6033388376235962,-2.049436569213867
1.211756944656372,-8.638279914855957,-0.7086837291717529,-2.145204782485962
1.213930606842041,-8.78193187713623,-0.8044517636299133,-2.2888567447662354
1.2160992622375488,-8.9064302444458,-0.8331822156906128,-2.2697031497955322
1.217195987701416,-8.829815864562988,-0.8523358106613159,-2.3080103397369385
1.2193689346313477,-8.734047889709473,-0.8810662031173706,-2.279279947280884
1.2215380668640137,-8.724471092224121,-0.8906430602073669,-2.097320795059204
1.2237136363983154,-8.848969459533691,-0.9672574996948242,-1.9823989868164062
1.225883960723877,-8.9064302444458,-1.0438719987869263,-2.011129379272461
1.228057622909546,-8.935160636901855,-1.0342950820922852,-2.0015525817871094
1.229154109954834,-8.89685344696045,-1.0534487962722778,-1.9057846069335938
1.231323003768921,-8.829815864562988,-1.0534487962722778,-1.8195933103561401
1.2334988117218018,-8.89685344696045,-1.0342950820922852,-1.8483237028121948
1.235668659210205,-9.02135181427002,-1.072602391242981,-1.8483237028121948
1.2378370761871338,-9.126696586608887,-1.1492167711257935,-1.8291701078414917
1.238936185836792,-9.097966194152832,-1.2258312702178955,-1.8100165128707886
1.2411034107208252,-8.992621421813965,-1.2641384601593018,-1.647210717201233
1.2432804107666016,-8.983044624328613,-1.2737152576446533,-1.5322890281677246
1.2454721927642822,-9.030928611755371,-1.292868971824646,-1.5322890281677246
1.2476823329925537,-9.126696586608887,-1.359906554222107,-1.5131354331970215
1.2488059997558594,-9.27034854888916,-1.4269442558288574,-1.5610195398330688
1.2510018348693848,-9.260771751403809,-1.50355863571167,-1.6184803247451782
1.253206729888916,-9.184157371520996,-1.4844050407409668,-1.4652514457702637
1.2554137706756592,-9.174580574035645,-1.5705963373184204,-1.455674648284912
1.2565770149230957,-9.232041358947754,-1.5514427423477173,-1.4460978507995605
1.2588000297546387,-9.442731857299805,-1.6184803247451782,-1.5418659448623657
1.2609782218933105,-9.576807022094727,-1.6855180263519287,-1.647210717201233
1.2631518840789795,-9.701305389404297,-1.7046716213226318,-1.656787633895874
1.2642579078674316,-9.557653427124023,-1.742978811264038,-1.6184803247451782
1.2664287090301514,-9.423578262329102,-1.8100165128707886,-1.4748282432556152
1.2685997486114502,-9.433155059814453,-1.8483237028121948,-1.436521053314209
1.2707841396331787,-9.519346237182617,-1.8770540952682495,-1.4173674583435059
1.272956132888794,-9.672574996948242,-1.886630892753601,-1.436521053314209
1.275254249572754,-9.710882186889648,-1.944091796875,-1.455674648284912
1.2763328552246094,-9.643844604492188,-1.9823989868164062,-1.436521053314209
1.278470754623413,-9.576807022094727,-2.0015525817871094,-1.4269442558288574
1.2806181907653809,-9.509769439697266,-2.0685901641845703,-1.4269442558288574
1.2827582359313965,-9.672574996948242,-2.183511972427368,-1.4173674583435059
1.2838423252105713,-9.77791976928711,-2.2026655673980713,-1.4269442558288574
1.286038875579834,-9.749189376831055,-2.1739351749420166,-1.4269442558288574
1.2882146835327148,-9.672574996948242,-2.2218191623687744,-1.4173674583435059
1.2903907299041748,-9.557653427124023,-2.212242364883423,-1.4173674583435059
1.292565107345581,-9.59596061706543,-2.279279947280884,-1.4269442558288574
1.2947442531585693,-9.672574996948242,-2.3558945655822754,-1.4077905416488647
1.295842170715332,-9.787496566772461,-2.38462495803833,-1.436521053314209
1.2980153560638428,-9.77791976928711,-2.451662540435791,-1.4844050407409668
1.3001880645751953,-9.682151794433594,-2.4420857429504395,-1.436521053314209
1.302358627319336,-9.66299819946289,-2.4612393379211426,-1.4460978507995605
1.3045339584350586,-9.749189376831055,-2.5282769203186035,-1.436521053314209
1.305633306503296,-9.835380554199219,-2.5953147411346436,-1.4460978507995605
1.30780029296875,-9.816226959228516,-2.6144683361053467,-1.4652514457702637
1.3099780082702637,-9.682151794433594,-2.5665841102600098,-1.4077905416488647
1.3121676445007324,-9.586383819580078,-2.5474305152893066,-1.4173674583435059
1.3132665157318115,-9.66299819946289,-2.518700122833252,-1.4748282432556152
1.315441608428955,-9.749189376831055,-2.6144683361053467,-1.436521053314209
1.317612648010254,-9.825803756713867,-2.6240451335906982,-1.455674648284912
1.3197872638702393,-9.797073364257812,-2.6240451335906982,-1.4748282432556152
1.3219590187072754,-9.634267807006836,-2.6431987285614014,-1.4077905416488647
1.3241424560546875,-9.66299819946289,-2.5665841102600098,-1.4173674583435059
1.325244665145874,-9.701305389404297,-2.5665841102600098,-1.455674648284912
1.3274152278900146,-9.84495735168457,-2.6431987285614014,-1.4460978507995605
1.329582691192627,-9.873687744140625,-2.6623523235321045,-1.455674648284912
1.331754446029663,-9.710882186889648,-2.63362193107605,-1.4269442558288574
1.332850694656372,-9.548076629638672,-2.557007312774658,-1.4173674583435059
1.3350183963775635,-9.576807022094727,-2.537853717803955,-1.4844050407409668
1.3372018337249756,-9.797073364257812,-2.6144683361053467,-1.50355863571167
1.3393700122833252,-9.873687744140625,-2.671929121017456,-1.4939818382263184
1.341547966003418,-9.835380554199219,-2.671929121017456,-1.4269442558288574
1.3437182903289795,-9.567230224609375,-2.5953147411346436,-1.4077905416488647
1.3448154926300049,-9.461885452270508,-2.4899697303771973,-1.4173674583435059
1.3469879627227783,-9.490615844726562,-2.451662540435791,-1.4077905416488647
1.349165439605713,-9.528923034667969,-2.470816135406494,-1.4173674583435059
1.3513455390930176,-9.710882186889648,-2.4612393379211426,-1.4269442558288574
1.3535189628601074,-9.500192642211914,-2.4229321479797363,-1.3694833517074585
1.3546161651611328,-9.308655738830566,-2.3558945655822754,-1.3982137441635132
1.3567917346954346,-9.260771751403809,-2.2601263523101807,-1.4269442558288574
1.3589603900909424,-9.375694274902344,-2.2601263523101807,-1.436521053314209
1.3611369132995605,-9.567230224609375,-2.346317768096924,-1.4269442558288574
1.3633091449737549,-9.586383819580078,-2.365471363067627,-1.4460978507995605
1.3644089698791504,-9.308655738830566,-2.279279947280884,-1.4460978507995605
1.3665838241577148,-9.14585018157959,-2.1547815799713135,-1.4748282432556152
1.3687546253204346,-9.232041358947754,-2.078166961669922,-1.5610195398330688
1.3709278106689453,-9.346963882446289,-2.1068975925445557,-1.6184803247451782
1.3730976581573486,-9.47146224975586,-2.1930887699127197,-1.6184803247451782
1.3741934299468994,-9.423578262329102,-2.145204782485962,-1.6855180263519287
1.3763651847839355,-9.184157371520996,-1.9919757843017578,-1.7046716213226318
1.378533124923706,-9.14585018157959,-1.9345149993896484,-1.8195933103561401
1.3807024955749512,-9.165003776550293,-1.9249382019042969,-1.7142484188079834
1.3828747272491455,-9.260771751403809,-1.944091796875,-1.6089035272598267
1.3850436210632324,-9.289502143859863,-1.944091796875,-1.599326729774475
1.3861827850341797,-9.078812599182129,-1.800439715385437,-1.5705963373184204
1.3883564472198486,-8.801085472106934,-1.6280571222305298,-1.4939818382263184
1.390526294708252,-8.762778282165527,-1.522712230682373,-1.4939818382263184
1.3927021026611328,-8.89685344696045,-1.580173134803772,-1.4652514457702637
1.393796443939209,-9.030928611755371,-1.5610195398330688,-1.4939818382263184
1.3959636688232422,-9.069235801696777,-1.522712230682373,-1.5514427423477173
1.398139238357544,-8.791508674621582,-1.4844050407409668,-1.5322890281677246
1.4003081321716309,-8.580819129943848,-1.3694833517074585,-1.5610195398330688
1.4024884700775146,-8.638279914855957,-1.3311761617660522,-1.5610195398330688
1.4035847187042236,-8.743624687194824,-1.3311761617660522,-1.4844050407409668
1.4057552814483643,-8.801085472106934,-1.3311761617660522,-1.5322890281677246
1.407930850982666,-8.753201484680176,-1.2258312702178955,-1.6089035272598267
1.4101035594940186,-8.561665534973145,-1.1204863786697388,-1.6950948238372803
1.4122803211212158,-8.47547435760498,-1.0342950820922852,-1.7334020137786865
1.413377285003662,-8.53293514251709,-1.015141487121582,-1.742978811264038
1.4155447483062744,-8.695740699768066,-1.1683704853057861,-1.7812861204147339
1.4177179336547852,-8.810662269592285,-1.1492167711257935,-1.8770540952682495
1.4198882579803467,-8.628703117370605,-1.091755986213684,-1.9345149993896484
1.4220590591430664,-8.418013572692871,-1.0055646896362305,-1.8291701078414917
1.4231541156768799,-8.360552787780762,-0.9002198576927185,-1.9057846069335938
1.4253218173980713,-8.35097599029541,-0.9289502501487732,-1.7908629179000854
1.4274930953979492,-8.53293514251709,-0.9193734526634216,-1.7621324062347412
1.4296627044677734,-8.523358345031738,-0.8236053586006165,-1.867477297782898
1.4318315982818604,-8.437167167663574,-0.727837324142456,-1.9919757843017578
1.4340064525604248,-8.255207061767578,-0.7948749661445618,-1.8962076902389526
1.4351027011871338,-8.245630264282227,-0.7469909191131592,-1.8770540952682495
1.4372787475585938,-8.283937454223633,-0.7182605266571045,-1.7334020137786865
1.4394476413726807,-8.40843677520752,-0.7469909191131592,-1.800439715385437
1.4416162967681885,-8.437167167663574,-0.6991068720817566,-1.8579005002975464
1.4427154064178467,-8.370129585266113,-0.6416460275650024,-1.9057846069335938
1.4448816776275635,-8.169015884399414,-0.6416460275650024,-1.8100165128707886
1.447049617767334,-8.130708694458008,-0.5841852426528931,-1.7142484188079834
1.4492361545562744,-8.169015884399414,-0.5554547905921936,-1.6759412288665771
1.4514052867889404,-8.255207061767578,-0.5171475410461426,-1.6950948238372803
1.4525120258331299,-8.303091049194336,-0.545877993106842,-1.8962076902389526
1.4546892642974854,-8.274360656738281,-0.5267243981361389,-1.8770540952682495
1.4568617343902588,-8.159439086914062,-0.5746083855628967,-1.8483237028121948
1.459038257598877,-8.130708694458008,-0.5554547905921936,-1.8195933103561401
1.4612224102020264,-8.111555099487305,-0.5363011956214905,-1.6376339197158813
1.4623196125030518,-8.130708694458008,-0.5841852426528931,-1.7142484188079834
1.464494228363037,-8.188169479370117,-0.5171475410461426,-1.7908629179000854
1.4666626453399658,-8.188169479370117,-0.5171475410461426,-1.8770540952682495
1.4688360691070557,-8.14028549194336,-0.5267243981361389,-1.7525556087493896
1.4710042476654053,-8.015787124633789,-0.5267243981361389,-1.742978811264038
1.4721002578735352,-7.977479934692383,-0.5171475410461426,-1.7142484188079834
1.4742741584777832,-8.08282470703125,-0.4884171485900879,-1.6950948238372803
1.4764435291290283,-8.197746276855469,-0.507570743560791,-1.7717092037200928
1.478618860244751,-8.197746276855469,-0.6033388376235962,-1.8962076902389526
1.480790376663208,-8.26478385925293,-0.5554547905921936,-1.8770540952682495
1.4829614162445068,-8.092401504516602,-0.6129156351089478,-1.867477297782898
1.4840621948242188,-7.987056732177734,-0.6416460275650024,-1.8483237028121948
1.4862313270568848,-8.063671112060547,-0.6224924325942993,-1.7046716213226318
1.488405466079712,-8.169015884399414,-0.6416460275650024,-1.7908629179000854
1.490574598312378,-8.26478385925293,-0.6799532771110535,-1.8387469053268433
1.4916696548461914,-8.274360656738281,-0.6991068720817566,-1.944091796875
1.4938452243804932,-8.14028549194336,-0.689530074596405,-1.9153614044189453
1.4960143566131592,-8.044517517089844,-0.7565677165985107,-1.8387469053268433
1.4981844425201416,-8.092401504516602,-0.7374141216278076,-1.7525556087493896
1.5003578662872314,-8.26478385925293,-0.8140285611152649,-1.7717092037200928
1.5025293827056885,-8.341399192810059,-0.8427590131759644,-1.8770540952682495
1.5036330223083496,-8.360552787780762,-0.8810662031173706,-1.8291701078414917
1.505803108215332,-8.303091049194336,-0.871489405632019,-1.8291701078414917
1.5079710483551025,-8.111555099487305,-0.9289502501487732,-1.6950948238372803
1.5101468563079834,-8.02536392211914,-0.9097966551780701,-1.580173134803772
1.5123167037963867,-8.121131896972656,-0.9097966551780701,-1.455674648284912
1.5134122371673584,-8.236053466796875,-0.9002198576927185,-1.4748282432556152
1.5155830383300781,-8.303091049194336,-1.015141487121582,-1.6855180263519287
1.5177521705627441,-8.35097599029541,-0.9959878921508789,-1.5897499322891235
1.5199224948883057,-8.245630264282227,-1.0342950820922852,-1.580173134803772
1.5220935344696045,-8.197746276855469,-1.1013327836990356,-1.5705963373184204
1.5231902599334717,-8.169015884399414,-1.0821791887283325,-1.4844050407409668
1.525369644165039,-8.255207061767578,-1.1492167711257935,-1.4844050407409668
1.527538537979126,-8.379706382751465,-1.1971008777618408,-1.5705963373184204
1.5297141075134277,-8.427590370178223,-1.2258312702178955,-1.6759412288665771
1.5318820476531982,-8.370129585266113,-1.235408067703247,-1.6089035272598267
1.5329763889312744,-8.255207061767578,-1.2832920551300049,-1.5705963373184204
1.5351500511169434,-8.188169479370117,-1.3215993642807007,-1.5610195398330688
1.5373175144195557,-8.216899871826172,-1.3311761617660522,-1.5514427423477173
1.539487600326538,-8.33182144165039,-1.3311761617660522,-1.599326729774475
1.5416555404663086,-8.47547435760498,-1.37906014919281,-1.7908629179000854
1.5427501201629639,-8.561665534973145,-1.4652514457702637,-1.8195933103561401
1.5449235439300537,-8.542511940002441,-1.5418659448623657,-1.7334020137786865
1.5470917224884033,-8.370129585266113,-1.580173134803772,-1.6855180263519287
1.5492610931396484,-8.379706382751465,-1.5514427423477173,-1.6184803247451782
1.5514369010925293,-8.437167167663574,-1.50355863571167,-1.580173134803772
1.5536046028137207,-8.542511940002441,-1.580173134803772,-1.6759412288665771
1.5547025203704834,-8.580819129943848,-1.6376339197158813,-1.6663644313812256
1.5568811893463135,-8.580819129943848,-1.6759412288665771,-1.522712230682373
1.5590529441833496,-8.370129585266113,-1.6855180263519287,-1.455674648284912
1.561230182647705,-8.341399192810059,-1.6759412288665771,-1.4652514457702637
1.5623259544372559,-8.465897560119629,-1.6759412288665771,-1.455674648284912
1.56449556350708,-8.571242332458496,-1.7142484188079834,-1.4748282432556152
1.5666682720184326,-8.647856712341309,-1.7717092037200928,-1.5131354331970215
1.5688385963439941,-8.686163902282715,-1.7717092037200928,-1.4939818382263184
1.5710148811340332,-8.523358345031738,-1.7908629179000854,-1.4173674583435059
1.5731871128082275,-8.389283180236816,-1.8195933103561401,-1.4173674583435059
1.5742850303649902,-8.398859977722168,-1.7908629179000854,-1.37906014919281
1.5764636993408203,-8.542511940002441,-1.7908629179000854,-1.2832920551300049
1.5786309242248535,-8.705317497253418,-1.7908629179000854,-1.4077905416488647
1.580806016921997,-8.753201484680176,-1.867477297782898,-1.4652514457702637
1.5819032192230225,-8.705317497253418,-1.9153614044189453,-1.4173674583435059
1.5840704441070557,-8.59997272491455,-1.9728221893310547,-1.4269442558288574
1.58624267578125,-8.571242332458496,-2.0398597717285156,-1.4173674583435059
1.5884110927581787,-8.762778282165527,-1.9823989868164062,-1.4077905416488647
1.5905828475952148,-8.925583839416504,-1.9728221893310547,-1.4460978507995605
1.5927519798278809,-8.973467826843262,-2.0590133666992188,-1.5610195398330688
1.5938482284545898,-8.935160636901855,-2.078166961669922,-1.5514427423477173
1.5960233211517334,-8.743624687194824,-2.0685901641845703,-1.4269442558288574
1.5981943607330322,-8.619126319885254,-2.1068975925445557,-1.4269442558288574
1.600365400314331,-8.667010307312012,-2.0207061767578125,-1.37906014919281
1.602539300918579,-8.810662269592285,-2.030282974243164,-1.3982137441635132
1.6036348342895508,-8.944737434387207,-2.0207061767578125,-1.436521053314209
1.6058082580566406,-9.002198219299316,-2.0398597717285156,-1.4939818382263184
1.6079728603363037,-8.9064302444458,-2.0877439975738525,-1.436521053314209
1.6101417541503906,-8.810662269592285,-2.1068975925445557,-1.3982137441635132
1.6112406253814697,-8.71489429473877,-2.1068975925445557,-1.3407529592514038
1.6134090423583984,-8.858546257019043,-2.049436569213867,-1.3024457693099976
1.61557936668396,-8.983044624328613,-2.0207061767578125,-1.3503297567367554
1.6177566051483154,-9.030928611755371,-2.049436569213867,-1.3982137441635132
1.6199257373809814,-9.050082206726074,-2.049436569213867,-1.359906554222107
1.6221015453338623,-8.858546257019043,-2.0398597717285156,-1.2737152576446533
1.623199224472046,-8.667010307312012,-2.0207061767578125,-1.2641384601593018
1.6253671646118164,-8.829815864562988,-1.9823989868164062,-1.1971008777618408
1.6275417804718018,-8.96389102935791,-1.9728221893310547,-1.2832920551300049
1.6297097206115723,-9.117119789123535,-1.9632453918457031,-1.4173674583435059
1.6318790912628174,-9.241618156433105,-1.9536685943603516,-1.4269442558288574
1.6340465545654297,-9.107542991638184,-2.0015525817871094,-1.4077905416488647
1.6351423263549805,-8.944737434387207,-1.9632453918457031,-1.3982137441635132
1.637314796447754,-8.973467826843262,-1.9728221893310547,-1.2545616626739502
1.6394829750061035,-9.011775016784668,-1.9536685943603516,-1.2832920551300049
1.6416573524475098,-9.155426979064941,-1.867477297782898,-1.3503297567367554
1.6427555084228516,-9.14585018157959,-1.8387469053268433,-1.3215993642807007
1.644923448562622,-9.002198219299316,-1.8291701078414917,-1.2832920551300049
1.6470954418182373,-8.858546257019043,-1.8195933103561401,-1.1971008777618408
1.6518468856811523,-8.877699851989746,-1.7046716213226318,-1.1492167711257935
1.6529667377471924,-9.040505409240723,-1.7621324062347412,-1.158793568611145
1.654068946838379,-9.155426979064941,-1.6950948238372803,-1.2641384601593018
1.6551666259765625,-9.21288776397705,-1.6759412288665771,-1.3407529592514038
1.6573412418365479,-9.107542991638184,-1.6950948238372803,-1.2641384601593018
1.658437728881836,-8.954314231872559,-1.5705963373184204,-1.1683704853057861
1.6606128215789795,-8.916007041931152,-1.5705963373184204,-1.072602391242981
1.6628508567810059,-8.944737434387207,-1.6376339197158813,-1.0534487962722778
1.665022850036621,-9.107542991638184,-1.5514427423477173,-1.1875240802764893
1.667198657989502,-9.165003776550293,-1.5322890281677246,-1.2737152576446533
1.6682984828948975,-9.078812599182129,-1.50355863571167,-1.3120225667953491
1.6704697608947754,-8.944737434387207,-1.522712230682373,-1.3024457693099976
1.672642707824707,-8.944737434387207,-1.50355863571167,-1.2737152576446533
1.6748485565185547,-9.097966194152832,-1.5131354331970215,-1.2545616626739502
1.6771025657653809,-9.251194953918457,-1.5610195398330688,-1.37906014919281
1.6782162189483643,-9.27034854888916,-1.522712230682373,-1.37906014919281
1.680396556854248,-9.184157371520996,-1.455674648284912,-1.3215993642807007
1.682572841644287,-8.954314231872559,-1.3982137441635132,-1.2449848651885986
1.6847424507141113,-8.9064302444458,-1.3120225667953491,-1.1875240802764893
1.686910629272461,-8.944737434387207,-1.3311761617660522,-1.0630255937576294
1.6880099773406982,-9.08838939666748,-1.3024457693099976,-1.139639973640442
1.6901860237121582,-9.165003776550293,-1.2832920551300049,-1.292868971824646
1.6923575401306152,-9.136273384094238,-1.3311761617660522,-1.292868971824646
1.6945312023162842,-9.040505409240723,-1.2737152576446533,-1.2641384601593018
1.6956264972686768,-9.050082206726074,-1.2449848651885986,-1.235408067703247
1.697803020477295,-9.078812599182129,-1.3024457693099976,-1.072602391242981
1.6999714374542236,-9.136273384094238,-1.2832920551300049,-1.1779472827911377
1.702139139175415,-9.174580574035645,-1.235408067703247,-1.216254472732544
1.7043123245239258,-9.078812599182129,-1.216254472732544,-1.235408067703247
1.7054073810577393,-8.973467826843262,-1.1013327836990356,-1.2258312702178955
1.7075753211975098,-8.935160636901855,-1.1013327836990356,-1.1492167711257935
1.7097508907318115,-9.02135181427002,-1.1204863786697388,-1.1492167711257935
1.7119207382202148,-9.117119789123535,-1.1300631761550903,-1.2641384601593018
1.7140979766845703,-9.184157371520996,-1.1109095811843872,-1.2737152576446533
1.7162690162658691,-9.097966194152832,-1.139639973640442,-1.2641384601593018
1.7173640727996826,-9.011775016784668,-1.1109095811843872,-1.2449848651885986
1.719536542892456,-9.030928611755371,-1.1204863786697388,-1.139639973640442
1.721710205078125,-9.069235801696777,-1.091755986213684,-1.1204863786697388
1.723879337310791,-9.050082206726074,-1.0630255937576294,-1.2545616626739502
1.726048469543457,-9.08838939666748,-1.0342950820922852,-1.1875240802764893
1.727144479751587,-8.944737434387207,-0.9959878921508789,-1.1013327836990356
1.729318618774414,-8.829815864562988,-0.9959878921508789,-1.0438719987869263
1.731487512588501,-8.848969459533691,-0.9864110946655273,-1.1109095811843872
1.7336630821228027,-8.973467826843262,-1.015141487121582,-1.0534487962722778
1.7358312606811523,-9.107542991638184,-1.0342950820922852,-1.1779472827911377
1.738004207611084,-9.097966194152832,-1.0342950820922852,-1.1875240802764893
1.739107370376587,-8.992621421813965,-1.0438719987869263,-1.1109095811843872
1.741276502609253,-8.83939266204834,-1.0342950820922852,-1.1683704853057861
1.7434461116790771,-8.848969459533691,-0.9959878921508789,-1.072602391242981
1.7456355094909668,-8.9064302444458,-1.0342950820922852,-1.1109095811843872
1.7467329502105713,-9.011775016784668,-1.015141487121582,-1.2066776752471924
1.7489032745361328,-8.944737434387207,-1.015141487121582,-1.1971008777618408
1.7510709762573242,-8.83939266204834,-1.0055646896362305,-1.1875240802764893
1.7532408237457275,-8.71489429473877,-0.9768342971801758,-1.2258312702178955
1.7554140090942383,-8.858546257019043,-0.9959878921508789,-1.2258312702178955
1.756521463394165,-9.011775016784668,-1.139639973640442,-1.2449848651885986
1.7586925029754639,-9.08838939666748,-1.1300631761550903,-1.3694833517074585
1.7608692646026611,-9.002198219299316,-1.139639973640442,-1.292868971824646
1.7630386352539062,-8.877699851989746,-1.1109095811843872,-1.216254472732544
1.7652509212493896,-8.71489429473877,-1.0821791887283325,-1.2737152576446533
1.7663776874542236,-8.734047889709473,-1.072602391242981,-1.1109095811843872
1.7685728073120117,-8.791508674621582,-1.1109095811843872,-1.0821791887283325
1.7707579135894775,-8.887276649475098,-1.1300631761550903,-1.1971008777618408
1.7729296684265137,-8.877699851989746,-1.091755986213684,-1.216254472732544
1.7740254402160645,-8.78193187713623,-1.1300631761550903,-1.235408067703247
1.7762031555175781,-8.724471092224121,-1.1300631761550903,-1.3024457693099976
1.7783727645874023,-8.791508674621582,-1.1683704853057861,-1.2066776752471924
1.7805509567260742,-8.89685344696045,-1.2641384601593018,-1.158793568611145
1.7827222347259521,-8.944737434387207,-1.3120225667953491,-1.1875240802764893
1.784897804260254,-8.868123054504395,-1.2737152576446533,-1.2258312702178955
1.7859957218170166,-8.686163902282715,-1.2449848651885986,-1.1492167711257935
1.7881641387939453,-8.571242332458496,-1.2066776752471924,-1.139639973640442
1.790334701538086,-8.667010307312012,-1.2449848651885986,-1.0821791887283325
1.7925035953521729,-8.810662269592285,-1.3120225667953491,-1.1013327836990356
1.7936007976531982,-8.916007041931152,-1.3311761617660522,-1.235408067703247
1.795774221420288,-8.9064302444458,-1.3407529592514038,-1.3024457693099976
1.7979435920715332,-8.801085472106934,-1.3886369466781616,-1.3215993642807007
1.8001174926757812,-8.705317497253418,-1.4077905416488647,-1.2737152576446533
1.8023064136505127,-8.762778282165527,-1.4173674583435059,-1.1779472827911377
1.8044805526733398,-8.877699851989746,-1.436521053314209,-1.1779472827911377
1.8055827617645264,-8.83939266204834,-1.4844050407409668,-1.2449848651885986
1.8077547550201416,-8.801085472106934,-1.436521053314209,-1.2449848651885986
1.8099846839904785,-8.65743350982666,-1.4652514457702637,-1.1492167711257935
1.8121578693389893,-8.552088737487793,-1.4652514457702637,-1.1683704853057861
1.8143250942230225,-8.638279914855957,-1.4844050407409668,-1.015141487121582
1.815427303314209,-8.743624687194824,-1.5610195398330688,-1.0438719987869263
1.817596435546875,-8.810662269592285,-1.580173134803772,-1.1492167711257935
1.8197643756866455,-8.858546257019043,-1.580173134803772,-1.2066776752471924
1.8219377994537354,-8.695740699768066,-1.6089035272598267,-1.1013327836990356
1.8230328559875488,-8.580819129943848,-1.5514427423477173,-1.0630255937576294
1.8252034187316895,-8.619126319885254,-1.5705963373184204,-0.9768342971801758
1.8273825645446777,-8.65743350982666,-1.599326729774475,-1.0055646896362305
1.8295536041259766,-8.743624687194824,-1.6184803247451782,-1.1683704853057861
1.8317322731018066,-8.791508674621582,-1.6089035272598267,-1.1875240802764893
1.8339025974273682,-8.676587104797363,-1.6950948238372803,-1.216254472732544
1.8349971771240234,-8.552088737487793,-1.6376339197158813,-1.216254472732544
1.8371715545654297,-8.628703117370605,-1.6376339197158813,-1.1779472827911377
1.839339256286621,-8.78193187713623,-1.723825216293335,-1.1683704853057861
1.841510534286499,-8.829815864562988,-1.8100165128707886,-1.2737152576446533
1.8436782360076904,-8.925583839416504,-1.7908629179000854,-1.3215993642807007
1.844773530960083,-8.829815864562988,-1.8100165128707886,-1.2066776752471924
1.8469469547271729,-8.5903959274292,-1.742978811264038,-1.1971008777618408
1.8491156101226807,-8.542511940002441,-1.6950948238372803,-1.139639973640442
1.8512904644012451,-8.5903959274292,-1.723825216293335,-1.0438719987869263
1.8534612655639648,-8.762778282165527,-1.742978811264038,-1.0534487962722778
1.8545591831207275,-8.762778282165527,-1.742978811264038,-1.139639973640442
1.8567824363708496,-8.734047889709473,-1.7334020137786865,-1.1300631761550903
1.8589882850646973,-8.647856712341309,-1.723825216293335,-1.1492167711257935
1.8611698150634766,-8.552088737487793,-1.723825216293335,-1.0821791887283325
1.8633418083190918,-8.638279914855957,-1.723825216293335,-0.9576807022094727
1.8644378185272217,-8.734047889709473,-1.7525556087493896,-0.9864110946655273
1.8666114807128906,-8.753201484680176,-1.800439715385437,-1.0630255937576294
1.8687803745269775,-8.78193187713623,-1.7525556087493896,-1.0821791887283325
1.8709518909454346,-8.619126319885254,-1.7621324062347412,-1.091755986213684
1.8731293678283691,-8.5903959274292,-1.7334020137786865,-1.0055646896362305
1.8742256164550781,-8.5903959274292,-1.723825216293335,-0.9672574996948242
1.8764011859893799,-8.686163902282715,-1.742978811264038,-0.9768342971801758
1.8785719871520996,-8.78193187713623,-1.7142484188079834,-1.158793568611145
1.8807408809661865,-8.848969459533691,-1.7621324062347412,-1.216254472732544
1.8829143047332764,-8.78193187713623,-1.7812861204147339,-1.2258312702178955
1.8840093612670898,-8.628703117370605,-1.7717092037200928,-1.1204863786697388
1.8861784934997559,-8.628703117370605,-1.723825216293335,-1.0630255937576294
1.8883495330810547,-8.724471092224121,-1.6950948238372803,-0.9672574996948242
1.8905179500579834,-8.820239067077637,-1.7046716213226318,-1.1109095811843872
1.892690896987915,-8.772355079650879,-1.6759412288665771,-1.1300631761550903
1.893787145614624,-8.724471092224121,-1.6663644313812256,-1.0534487962722778
1.8959555625915527,-8.561665534973145,-1.656787633895874,-0.9864110946655273
1.8981318473815918,-8.561665534973145,-1.6376339197158813,-0.8906430602073669
1.9003031253814697,-8.676587104797363,-1.599326729774475,-0.9193734526634216
1.9024794101715088,-8.810662269592285,-1.6089035272598267,-1.0438719987869263
1.9035754203796387,-8.944737434387207,-1.656787633895874,-1.1013327836990356
1.9057447910308838,-8.868123054504395,-1.6280571222305298,-1.1109095811843872
1.9079256057739258,-8.65743350982666,-1.647210717201233,-0.9097966551780701
1.9100947380065918,-8.504204750061035,-1.5705963373184204,-0.8810662031173706
1.9122672080993652,-8.580819129943848,-1.5418659448623657,-0.7374141216278076
1.9133634567260742,-8.695740699768066,-1.4939818382263184,-0.7757213711738586
1.9155309200286865,-8.820239067077637,-1.50355863571167,-0.9864110946655273
1.9177074432373047,-8.848969459533691,-1.4652514457702637,-1.1204863786697388
1.9198777675628662,-8.71489429473877,-1.4844050407409668,-1.0247182846069336
1.9220490455627441,-8.628703117370605,-1.4844050407409668,-1.0055646896362305
1.9231479167938232,-8.71489429473877,-1.436521053314209,-0.9959878921508789
1.9253168106079102,-8.89685344696045,-1.50355863571167,-1.0342950820922852
1.9274885654449463,-8.992621421813965,-1.4939818382263184,-1.072602391242981
1.929656982421875,-8.983044624328613,-1.4748282432556152,-1.1300631761550903
1.9318251609802246,-8.78193187713623,-1.4173674583435059,-1.0534487962722778
1.9329233169555664,-8.628703117370605,-1.4173674583435059,-0.9481038451194763
1.9350907802581787,-8.523358345031738,-1.3407529592514038,-0.8236053586006165
1.9372584819793701,-8.619126319885254,-1.3120225667953491,-0.727837324142456
1.9394290447235107,-8.78193187713623,-1.2832920551300049,-0.7948749661445618
1.9416027069091797,-8.858546257019043,-1.2449848651885986,-1.0055646896362305
1.9437742233276367,-8.829815864562988,-1.2641384601593018,-0.9959878921508789
1.9448702335357666,-8.734047889709473,-1.3120225667953491,-0.8619126081466675
1.947037935256958,-8.65743350982666,-1.2449848651885986,-0.8619126081466675
1.9492385387420654,-8.705317497253418,-1.235408067703247,-0.7948749661445618
1.9514102935791016,-8.753201484680176,-1.2066776752471924,-0.7565677165985107
1.9535870552062988,-8.820239067077637,-1.2066776752471924,-0.9002198576927185
1.9546849727630615,-8.877699851989746,-1.216254472732544,-0.9193734526634216
1.956852912902832,-8.753201484680176,-1.1971008777618408,-0.8906430602073669
1.9590251445770264,-8.647856712341309,-1.2449848651885986,-0.8619126081466675
1.9611930847167969,-8.695740699768066,-1.216254472732544,-0.7948749661445618
1.962289810180664,-8.753201484680176,-1.216254472732544,-0.8619126081466675
1.9644756317138672,-8.868123054504395,-1.158793568611145,-1.0342950820922852
1.9666452407836914,-9.02135181427002,-1.216254472732544,-1.0821791887283325
1.968820333480835,-8.935160636901855,-1.2545616626739502,-1.0342950820922852
1.970991849899292,-8.791508674621582,-1.2258312702178955,-0.9864110946655273
1.9720873832702637,-8.676587104797363,-1.1683704853057861,-0.8810662031173706
1.974261999130249,-8.724471092224121,-1.091755986213684,-0.8044517636299133
1.9764301776885986,-8.848969459533691,-1.1300631761550903,-0.8331822156906128
1.9786021709442139,-8.925583839416504,-1.1204863786697388,-0.9193734526634216
1.980771780014038,-8.868123054504395,-1.1013327836990356,-0.9002198576927185
1.9818685054779053,-8.724471092224121,-1.1204863786697388,-0.8140285611152649
1.9840400218963623,-8.628703117370605,-1.158793568611145,-0.7948749661445618
1.9862115383148193,-8.695740699768066,-1.1109095811843872,-0.6320692300796509
1.9883861541748047,-8.89685344696045,-1.1109095811843872,-0.7852981686592102
1.9905517101287842,-8.992621421813965,-1.1300631761550903,-0.871489405632019
1.9927220344543457,-8.954314231872559,-1.1013327836990356,-0.8619126081466675
1.993823766708374,-8.810662269592285,-1.158793568611145,-0.7182605266571045
1.9959912300109863,-8.65743350982666,-1.091755986213684,-0.7086837291717529
1.9981589317321777,-8.676587104797363,-1.1109095811843872,-0.5554547905921936
2.000333547592163,-8.820239067077637,-1.1683704853057861,-0.5937620401382446
2.001427412033081,-8.935160636901855,-1.091755986213684,-0.7565677165985107
2.0035951137542725,-8.935160636901855,-1.1204863786697388,-0.9097966551780701
2.0057730674743652,-8.848969459533691,-1.1204863786697388,-0.8236053586006165
2.0079407691955566,-8.695740699768066,-1.139639973640442,-0.8236053586006165
2.0101146697998047,-8.78193187713623,-1.1492167711257935,-0.7374141216278076
2.0122852325439453,-8.916007041931152,-1.2258312702178955,-0.7182605266571045
2.0133821964263916,-9.059659004211426,-1.2545616626739502,-0.8906430602073669
2.0155577659606934,-9.097966194152832,-1.235408067703247,-0.9289502501487732
2.0177299976348877,-8.935160636901855,-1.216254472732544,-0.8810662031173706
2.0199034214019775,-8.791508674621582,-1.2258312702178955,-0.7852981686592102
2.0220723152160645,-8.705317497253418,-1.235408067703247,-0.5937620401382446
2.0231668949127197,-8.772355079650879,-1.2641384601593018,-0.5171475410461426
2.0253419876098633,-8.89685344696045,-1.2258312702178955,-0.6416460275650024
2.0275094509124756,-8.944737434387207,-1.216254472732544,-0.8619126081466675
2.0296790599823,-8.935160636901855,-1.235408067703247,-0.7757213711738586
2.0318477153778076,-8.829815864562988,-1.235408067703247,-0.7661445140838623
2.032944440841675,-8.791508674621582,-1.2258312702178955,-0.7086837291717529
2.0351200103759766,-8.83939266204834,-1.2737152576446533,-0.5171475410461426
2.037292957305908,-8.925583839416504,-1.2737152576446533,-0.5937620401382446
2.039468765258789,-8.916007041931152,-1.292868971824646,-0.6224924325942993
2.0416393280029297,-8.935160636901855,-1.3215993642807007,-0.6799532771110535
2.0427353382110596,-8.801085472106934,-1.3024457693099976,-0.6224924325942993
2.044908285140991,-8.71489429473877,-1.3120225667953491,-0.545877993106842
2.047076463699341,-8.753201484680176,-1.3024457693099976,-0.4692635238170624
2.049243450164795,-8.858546257019043,-1.3503297567367554,-0.6416460275650024
2.051414728164673,-9.040505409240723,-1.3407529592514038,-0.7948749661445618
2.0525097846984863,-9.069235801696777,-1.4077905416488647,-0.8331822156906128
2.054701328277588,-9.02135181427002,-1.5131354331970215,-0.727837324142456
2.056870460510254,-8.868123054504395,-1.4844050407409668,-0.7086837291717529
2.059041976928711,-8.877699851989746,-1.4748282432556152,-0.5937620401382446
2.0612411499023438,-8.935160636901855,-1.4939818382263184,-0.5841852426528931
2.06341290473938,-8.935160636901855,-1.4652514457702637,-0.6607996821403503
2.0645084381103516,-8.935160636901855,-1.4652514457702637,-0.6320692300796509
2.066683053970337,-8.829815864562988,-1.4652514457702637,-0.6033388376235962
2.068850517272949,-8.743624687194824,-1.455674648284912,-0.6224924325942993
2.07102370262146,-8.810662269592285,-1.4748282432556152,-0.5650315880775452
2.072117567062378,-8.935160636901855,-1.4939818382263184,-0.6129156351089478
2.074298143386841,-9.02135181427002,-1.580173134803772,-0.727837324142456
2.076472520828247,-9.030928611755371,-1.5897499322891235,-0.7182605266571045
2.0786385536193848,-8.868123054504395,-1.5705963373184204,-0.6033388376235962
2.080813407897949,-8.734047889709473,-1.5418659448623657,-0.4884171485900879
2.082984685897827,-8.743624687194824,-1.5418659448623657,-0.40222588181495667
2.084080696105957,-8.810662269592285,-1.5514427423477173,-0.4213795065879822
2.0862576961517334,-8.935160636901855,-1.5514427423477173,-0.5841852426528931
2.0884289741516113,-8.96389102935791,-1.5610195398330688,-0.5746083855628967
2.090603828430176,-8.877699851989746,-1.5705963373184204,-0.6607996821403503
2.091701030731201,-8.791508674621582,-1.5705963373184204,-0.7086837291717529
2.093874454498291,-8.868123054504395,-1.5705963373184204,-0.6703764796257019
2.0960447788238525,-9.002198219299316,-1.6950948238372803,-0.6703764796257019
2.0982141494750977,-9.155426979064941,-1.7142484188079834,-0.727837324142456
2.100383996963501,-9.097966194152832,-1.656787633895874,-0.7852981686592102
2.1014842987060547,-8.944737434387207,-1.7046716213226318,-0.7182605266571045
2.1036529541015625,-8.762778282165527,-1.6376339197158813,-0.6703764796257019
2.1058309078216553,-8.743624687194824,-1.6089035272598267,-0.5363011956214905
2.107996940612793,-8.820239067077637,-1.656787633895874,-0.35434186458587646
2.1101670265197754,-8.887276649475098,-1.6184803247451782,-0.43095630407333374
2.11126708984375,-8.935160636901855,-1.599326729774475,-0.507570743560791
2.1134371757507324,-8.887276649475098,-1.5897499322891235,-0.545877993106842
2.1156041622161865,-8.801085472106934,-1.599326729774475,-0.5937620401382446
2.1177783012390137,-8.791508674621582,-1.5897499322891235,-0.3926490843296051
2.1199450492858887,-8.858546257019043,-1.6089035272598267,-0.3256114423274994
2.1221187114715576,-8.9064302444458,-1.656787633895874,-0.38307225704193115
2.1232147216796875,-8.983044624328613,-1.5610195398330688,-0.5267243981361389
2.1253859996795654,-8.89685344696045,-1.6280571222305298,-0.49799394607543945
2.127562999725342,-8.743624687194824,-1.6280571222305298,-0.40222588181495667
2.12973690032959,-8.762778282165527,-1.580173134803772,-0.3926490843296051
2.131910800933838,-8.820239067077637,-1.6184803247451782,-0.3447650372982025
2.1330089569091797,-8.9064302444458,-1.656787633895874,-0.5171475410461426
2.1351771354675293,-8.983044624328613,-1.6089035272598267,-0.6991068720817566
2.1373512744903564,-9.030928611755371,-1.6663644313812256,-0.7374141216278076
2.142033576965332,-8.96389102935791,-1.6376339197158813,-0.6991068720817566
2.1431431770324707,-8.89685344696045,-1.6663644313812256,-0.6224924325942993
2.144242525100708,-8.887276649475098,-1.6376339197158813,-0.5363011956214905
2.1453394889831543,-8.916007041931152,-1.6184803247451782,-0.6033388376235962
2.1475107669830322,-8.96389102935791,-1.5514427423477173,-0.6416460275650024
2.1486105918884277,-8.9064302444458,-1.5610195398330688,-0.4596867263317108
2.1507792472839355,-8.734047889709473,-1.5514427423477173,-0.4118026793003082
2.1529548168182373,-8.686163902282715,-1.5131354331970215,-0.40222588181495667
2.1551218032836914,-8.848969459533691,-1.5322890281677246,-0.38307225704193115
2.157296895980835,-8.954314231872559,-1.5610195398330688,-0.4213795065879822
2.158393144607544,-9.011775016784668,-1.5897499322891235,-0.545877993106842
2.160557508468628,-9.011775016784668,-1.5610195398330688,-0.5363011956214905
2.162729501724243,-8.848969459533691,-1.5514427423477173,-0.43095630407333374
2.1648974418640137,-8.65743350982666,-1.522712230682373,-0.3926490843296051
2.1670730113983154,-8.743624687194824,-1.4844050407409668,-0.31603461503982544
2.1681711673736572,-8.829815864562988,-1.4844050407409668,-0.3447650372982025
2.1703362464904785,-8.9064302444458,-1.455674648284912,-0.40222588181495667
2.172511100769043,-8.858546257019043,-1.4269442558288574,-0.4884171485900879
2.1746768951416016,-8.810662269592285,-1.4269442558288574,-0.45010992884635925
2.1768479347229004,-8.71489429473877,-1.3407529592514038,-0.5841852426528931
2.1790263652801514,-8.877699851989746,-1.436521053314209,-0.45010992884635925
2.1813342571258545,-8.954314231872559,-1.50355863571167,-0.4884171485900879
2.1824936866760254,-9.059659004211426,-1.4844050407409668,-0.5554547905921936
2.184767723083496,-8.992621421813965,-1.4460978507995605,-0.5267243981361389
2.186967611312866,-8.801085472106934,-1.3982137441635132,-0.47884035110473633
2.1880931854248047,-8.638279914855957,-1.3503297567367554,-0.43095630407333374
2.190302610397339,-8.667010307312012,-1.3407529592514038,-0.2585737705230713
2.192505359649658,-8.810662269592285,-1.3407529592514038,-0.2777273952960968
2.1936182975769043,-8.89685344696045,-1.3024457693099976,-0.33518823981285095
2.1969101428985596,-8.89685344696045,-1.3215993642807007,-0.4596867263317108
2.1991710662841797,-8.83939266204834,-1.3311761617660522,-0.4692635238170624
2.2003133296966553,-8.753201484680176,-1.3024457693099976,-0.43095630407333374
2.2025372982025146,-8.762778282165527,-1.3311761617660522,-0.2968810200691223
2.2036733627319336,-8.810662269592285,-1.3215993642807007,-0.2298433631658554
2.2058889865875244,-8.887276649475098,-1.292868971824646,-0.40222588181495667
2.2081081867218018,-8.877699851989746,-1.2545616626739502,-0.4405331015586853
2.210343599319458,-8.71489429473877,-1.292868971824646,-0.4884171485900879
2.2114670276641846,-8.686163902282715,-1.2449848651885986,-0.40222588181495667
2.213686227798462,-8.705317497253418,-1.235408067703247,-0.35434186458587646
2.2159056663513184,-8.78193187713623,-1.2641384601593018,-0.4118026793003082
2.2181215286254883,-8.916007041931152,-1.2641384601593018,-0.5650315880775452
2.2192447185516357,-8.96389102935791,-1.2832920551300049,-0.5937620401382446
2.221458673477173,-8.9064302444458,-1.3120225667953491,-0.6033388376235962
2.2236881256103516,-8.78193187713623,-1.292868971824646,-0.5363011956214905
2.2259132862091064,-8.762778282165527,-1.2449848651885986,-0.38307225704193115
2.2270307540893555,-8.810662269592285,-1.2449848651885986,-0.3447650372982025
2.2292606830596924,-8.829815864562988,-1.1875240802764893,-0.43095630407333374
2.23146915435791,-8.848969459533691,-1.1492167711257935,-0.4213795065879822
2.233668088912964,-8.753201484680176,-1.1779472827911377,-0.26815059781074524
2.234779119491577,-8.580819129943848,-1.158793568611145,-0.24899697303771973
2.2369940280914307,-8.628703117370605,-1.1492167711257935,-0.24899697303771973
2.2392091751098633,-8.791508674621582,-1.1492167711257935,-0.24899697303771973
2.2414228916168213,-8.877699851989746,-1.2258312702178955,-0.40222588181495667
2.2436368465423584,-8.887276649475098,-1.158793568611145,-0.363918662071228
2.244762420654297,-8.820239067077637,-1.2258312702178955,-0.3256114423274994
2.2469775676727295,-8.667010307312012,-1.1971008777618408,-0.31603461503982544
2.249199151992798,-8.65743350982666,-1.1971008777618408,-0.2585737705230713
2.2514169216156006,-8.762778282165527,-1.1875240802764893,-0.17238251864910126
2.252530336380005,-8.848969459533691,-1.2449848651885986,-0.22026655077934265
2.2547225952148438,-8.877699851989746,-1.2066776752471924,-0.40222588181495667
2.2569079399108887,-8.78193187713623,-1.216254472732544,-0.33518823981285095
2.2591071128845215,-8.638279914855957,-1.1683704853057861,-0.40222588181495667
2.2602357864379883,-8.705317497253418,-1.158793568611145,-0.363918662071228
2.262423515319824,-8.762778282165527,-1.2066776752471924,-0.3734954595565796
2.264615297317505,-8.9064302444458,-1.2737152576446533,-0.38307225704193115
2.266808032989502,-8.983044624328613,-1.3024457693099976,-0.45010992884635925
2.269040822982788,-8.858546257019043,-1.292868971824646,-0.4118026793003082
2.27125883102417,-8.734047889709473,-1.2737152576446533,-0.3926490843296051
2.272382974624634,-8.59997272491455,-1.2258312702178955,-0.31603461503982544
2.2746007442474365,-8.65743350982666,-1.235408067703247,-0.17238251864910126
2.2768008708953857,-8.743624687194824,-1.2737152576446533,-0.15322890877723694
2.278996229171753,-8.772355079650879,-1.235408067703247,-0.2585737705230713
2.2801036834716797,-8.772355079650879,-1.2258312702178955,-0.3734954595565796
2.282309055328369,-8.734047889709473,-1.235408067703247,-0.4118026793003082
2.2845168113708496,-8.667010307312012,-1.2737152576446533,-0.3064578175544739
2.2867355346679688,-8.724471092224121,-1.3120225667953491,-0.22026655077934265
2.287853956222534,-8.829815864562988,-1.3503297567367554,-0.22026655077934265
2.2900681495666504,-8.83939266204834,-1.292868971824646,-0.28730419278144836
2.292285919189453,-8.848969459533691,-1.3024457693099976,-0.31603461503982544
2.2944908142089844,-8.724471092224121,-1.3120225667953491,-0.20111294090747833
2.2966833114624023,-8.619126319885254,-1.2832920551300049,-0.19153612852096558
2.297805070877075,-8.628703117370605,-1.2832920551300049,-0.10534487664699554
2.3000004291534424,-8.734047889709473,-1.3311761617660522,-0.17238251864910126
2.3021914958953857,-8.89685344696045,-1.3407529592514038,-0.35434186458587646
2.3044040203094482,-8.935160636901855,-1.3407529592514038,-0.47884035110473633
2.3055152893066406,-8.887276649475098,-1.4077905416488647,-0.47884035110473633
2.307732582092285,-8.801085472106934,-1.436521053314209,-0.3734954595565796
2.3099417686462402,-8.753201484680176,-1.4173674583435059,-0.23942017555236816
2.312180519104004,-8.791508674621582,-1.3982137441635132,-0.14365209639072418
2.31330943107605,-8.858546257019043,-1.37906014919281,-0.20111294090747833
2.3155224323272705,-8.868123054504395,-1.4077905416488647,-0.23942017555236816
2.317747116088867,-8.791508674621582,-1.37906014919281,-0.15322890877723694
2.319956064224243,-8.619126319885254,-1.37906014919281,-0.12449848651885986
2.3221540451049805,-8.619126319885254,-1.3503297567367554,-0.15322890877723694
2.32326340675354,-8.801085472106934,-1.3694833517074585,-0.10534487664699554
2.32546067237854,-8.89685344696045,-1.4269442558288574,-0.181959331035614
2.3276588916778564,-9.040505409240723,-1.4460978507995605,-0.26815059781074524
2.3298754692077637,-8.9064302444458,-1.50355863571167,-0.2298433631658554
2.3309857845306396,-8.724471092224121,-1.4652514457702637,-0.09576806426048279
2.333184003829956,-8.59997272491455,-1.4173674583435059,-0.019153613597154617
2.3353965282440186,-8.724471092224121,-1.4652514457702637,0.009576806798577309
2.3376147747039795,-8.887276649475098,-1.4939818382263184,-0.019153613597154617
2.3398091793060303,-8.89685344696045,-1.4748282432556152,-0.1628057211637497
2.340925693511963,-8.887276649475098,-1.4460978507995605,-0.26815059781074524
2.343116283416748,-8.820239067077637,-1.4939818382263184,-0.2298433631658554
2.3453176021575928,-8.743624687194824,-1.4939818382263184,-0.15322890877723694
2.347508668899536,-8.820239067077637,-1.50355863571167,-0.1149216815829277
2.348615884780884,-8.973467826843262,-1.5514427423477173,-0.14365209639072418
2.350828170776367,-9.050082206726074,-1.5514427423477173,-0.2585737705230713
2.353034734725952,-9.040505409240723,-1.5418659448623657,-0.2585737705230713
2.3552331924438477,-8.848969459533691,-1.50355863571167,-0.2106897532939911
2.3563601970672607,-8.667010307312012,-1.5131354331970215,-0.07661445438861847
2.3585479259490967,-8.724471092224121,-1.50355863571167,0.028730420395731926
2.36074161529541,-8.820239067077637,-1.522712230682373,0.047884032130241394
2.3629276752471924,-8.935160636901855,-1.50355863571167,-0.12449848651885986
2.3651463985443115,-8.954314231872559,-1.4844050407409668,-0.1628057211637497
2.3662750720977783,-8.935160636901855,-1.5131354331970215,-0.17238251864910126
2.368480682373047,-8.78193187713623,-1.50355863571167,-0.07661445438861847
2.37068772315979,-8.820239067077637,-1.522712230682373,0.038307227194309235
2.3729019165039062,-8.810662269592285,-1.5322890281677246,0.009576806798577309
2.3740289211273193,-8.916007041931152,-1.4939818382263184,0.019153613597154617
2.376234769821167,-8.992621421813965,-1.4748282432556152,-0.09576806426048279
2.378430128097534,-8.944737434387207,-1.4748282432556152,-0.09576806426048279
2.3806328773498535,-8.772355079650879,-1.436521053314209,0.0
2.3828303813934326,-8.743624687194824,-1.4844050407409668,0.047884032130241394
2.383944034576416,-8.78193187713623,-1.4939818382263184,0.047884032130241394
2.3861606121063232,-8.935160636901855,-1.522712230682373,-0.09576806426048279
2.3883824348449707,-9.08838939666748,-1.4652514457702637,-0.2298433631658554
2.3905978202819824,-9.08838939666748,-1.5610195398330688,-0.22026655077934265
2.3917226791381836,-8.944737434387207,-1.5514427423477173,-0.1628057211637497
2.393921136856079,-8.83939266204834,-1.5610195398330688,-0.09576806426048279
2.396148920059204,-8.935160636901855,-1.50355863571167,0.028730420395731926
2.398343801498413,-8.992621421813965,-1.4844050407409668,-0.038307227194309235
2.399473190307617,-8.973467826843262,-1.50355863571167,-0.09576806426048279
2.401679515838623,-8.935160636901855,-1.4460978507995605,-0.038307227194309235
2.403888702392578,-8.801085472106934,-1.3982137441635132,0.019153613597154617
2.4060957431793213,-8.734047889709473,-1.359906554222107,0.047884032130241394
2.408297300338745,-8.829815864562988,-1.3982137441635132,0.1149216815829277
2.4094197750091553,-8.992621421813965,-1.436521053314209,0.009576806798577309
2.4116322994232178,-9.107542991638184,-1.37906014919281,-0.019153613597154617
2.413864850997925,-9.050082206726074,-1.4269442558288574,-0.06703764945268631
2.4160783290863037,-8.868123054504395,-1.4173674583435059,0.019153613597154617
2.417208194732666,-8.753201484680176,-1.4173674583435059,0.09576806426048279
2.419405221939087,-8.820239067077637,-1.455674648284912,0.2106897532939911
2.421610116958618,-8.887276649475098,-1.4077905416488647,0.14365209639072418
2.4238128662109375,-8.944737434387207,-1.3982137441635132,0.019153613597154617
2.4260027408599854,-8.954314231872559,-1.4077905416488647,0.019153613597154617
2.427126884460449,-8.887276649475098,-1.3407529592514038,-0.047884032130241394
2.4293229579925537,-8.83939266204834,-1.359906554222107,-0.028730420395731926
2.4315268993377686,-8.916007041931152,-1.3694833517074585,0.0
2.433720111846924,-9.050082206726074,-1.436521053314209,0.0
2.4359216690063477,-9.117119789123535,-1.3886369466781616,-0.08619125932455063
2.43703556060791,-9.078812599182129,-1.37906014919281,-0.038307227194309235
2.4392476081848145,-8.858546257019043,-1.3407529592514038,0.009576806798577309
2.4414546489715576,-8.78193187713623,-1.2737152576446533,0.06703764945268631
2.4436540603637695,-8.772355079650879,-1.2449848651885986,0.181959331035614
2.444765090942383,-8.877699851989746,-1.3311761617660522,0.2585737705230713
2.446967124938965,-8.944737434387207,-1.292868971824646,0.12449848651885986
2.4491770267486572,-8.954314231872559,-1.3024457693099976,-0.009576806798577309
2.4513638019561768,-8.89685344696045,-1.3120225667953491,-0.009576806798577309
2.453555107116699,-8.791508674621582,-1.292868971824646,0.028730420395731926
2.4546782970428467,-8.829815864562988,-1.292868971824646,0.1149216815829277
2.456883192062378,-8.954314231872559,-1.3503297567367554,0.15322890877723694
2.4590985774993896,-8.983044624328613,-1.3024457693099976,0.07661445438861847
2.461289167404175,-8.96389102935791,-1.3024457693099976,0.038307227194309235
2.462405204772949,-8.83939266204834,-1.292868971824646,0.047884032130241394
2.4645979404449463,-8.78193187713623,-1.2449848651885986,0.028730420395731926
2.46681547164917,-8.801085472106934,-1.235408067703247,0.08619125932455063
2.469010591506958,-8.89685344696045,-1.3024457693099976,0.09576806426048279
2.470123767852783,-8.983044624328613,-1.3215993642807007,-0.047884032130241394
2.4723148345947266,-9.040505409240723,-1.3311761617660522,-0.13407529890537262
2.47451114654541,-8.954314231872559,-1.3407529592514038,-0.09576806426048279
2.4767162799835205,-8.810662269592285,-1.3215993642807007,-0.038307227194309235
2.478916883468628,-8.83939266204834,-1.3215993642807007,0.047884032130241394
2.480036497116089,-8.887276649475098,-1.3215993642807007,0.09576806426048279
2.4822425842285156,-8.935160636901855,-1.292868971824646,0.009576806798577309
2.4844534397125244,-8.89685344696045,-1.235408067703247,0.07661445438861847
2.486645460128784,-8.829815864562988,-1.3120225667953491,0.14365209639072418
2.4877655506134033,-8.71489429473877,-1.2258312702178955,0.12449848651885986
2.48997163772583,-8.78193187713623,-1.235408067703247,0.181959331035614
2.4921715259552,-8.935160636901855,-1.2641384601593018,0.22026655077934265
2.494363784790039,-8.96389102935791,-1.2545616626739502,0.12449848651885986
2.496549367904663,-8.96389102935791,-1.3024457693099976,0.08619125932455063
2.497657060623169,-8.877699851989746,-1.292868971824646,0.15322890877723694
2.499864101409912,-8.743624687194824,-1.2641384601593018,0.15322890877723694
2.5020639896392822,-8.724471092224121,-1.216254472732544,0.19153612852096558
2.5042665004730225,-8.858546257019043,-1.3120225667953491,0.24899697303771973
2.5064799785614014,-8.954314231872559,-1.3120225667953491,0.181959331035614
2.507605791091919,-8.89685344696045,-1.3024457693099976,0.1628057211637497
2.5098209381103516,-8.868123054504395,-1.292868971824646,0.12449848651885986
2.5120222568511963,-8.676587104797363,-1.2832920551300049,0.10534487664699554
2.5142147541046143,-8.801085472106934,-1.2641384601593018,0.17238251864910126
2.5153400897979736,-8.868123054504395,-1.3407529592514038,0.13407529890537262
2.517545700073242,-9.011775016784668,-1.359906554222107,0.047884032130241394
2.5197479724884033,-9.02135181427002,-1.3503297567367554,0.06703764945268631
2.521974563598633,-8.887276649475098,-1.3503297567367554,0.047884032130241394
2.5231003761291504,-8.724471092224121,-1.3120225667953491,0.10534487664699554
2.5253283977508545,-8.667010307312012,-1.3024457693099976,0.2106897532939911
2.5275466442108154,-8.743624687194824,-1.3215993642807007,0.33518823981285095
2.5297648906707764,-8.89685344696045,-1.3311761617660522,0.2106897532939911
2.5308804512023926,-8.9064302444458,-1.3407529592514038,0.17238251864910126
2.5330920219421387,-8.83939266204834,-1.3311761617660522,0.10534487664699554
2.5353071689605713,-8.743624687194824,-1.3311761617660522,0.12449848651885986
2.5375378131866455,-8.724471092224121,-1.3215993642807007,0.2298433631658554
2.5386698246002197,-8.801085472106934,-1.37906014919281,0.23942017555236816
2.540889024734497,-8.935160636901855,-1.4269442558288574,0.22026655077934265
2.5430965423583984,-8.887276649475098,-1.3982137441635132,0.14365209639072418
2.5453250408172607,-8.762778282165527,-1.37906014919281,0.181959331035614
2.547538995742798,-8.628703117370605,-1.3694833517074585,0.20111294090747833
2.548663854598999,-8.5903959274292,-1.3407529592514038,0.20111294090747833
2.550863742828369,-8.762778282165527,-1.359906554222107,0.22026655077934265
2.553051233291626,-8.848969459533691,-1.3982137441635132,0.13407529890537262
2.5552785396575928,-8.916007041931152,-1.359906554222107,0.009576806798577309
2.5574705600738525,-8.89685344696045,-1.455674648284912,0.019153613597154617
2.5585806369781494,-8.78193187713623,-1.4460978507995605,0.009576806798577309
2.5607705116271973,-8.734047889709473,-1.4173674583435059,0.1149216815829277
2.5629849433898926,-8.753201484680176,-1.436521053314209,0.13407529890537262
2.5651817321777344,-8.801085472106934,-1.4269442558288574,0.12449848651885986
2.5663039684295654,-8.820239067077637,-1.436521053314209,0.09576806426048279
2.568521022796631,-8.743624687194824,-1.3982137441635132,0.2298433631658554
2.5707297325134277,-8.638279914855957,-1.4077905416488647,0.2298433631658554
2.572951078414917,-8.580819129943848,-1.3503297567367554,0.23942017555236816
2.57515811920166,-8.743624687194824,-1.4077905416488647,0.31603461503982544
2.5762722492218018,-8.801085472106934,-1.4652514457702637,0.20111294090747833
2.578486204147339,-8.89685344696045,-1.4269442558288574,0.15322890877723694
2.580709218978882,-8.772355079650879,-1.4173674583435059,0.23942017555236816
2.5829007625579834,-8.647856712341309,-1.4173674583435059,0.2777273952960968
2.5840203762054443,-8.504204750061035,-1.3886369466781616,0.3064578175544739
2.5862317085266113,-8.638279914855957,-1.3886369466781616,0.3926490843296051
2.5884392261505127,-8.791508674621582,-1.4173674583435059,0.3256114423274994
2.590635061264038,-8.810662269592285,-1.3982137441635132,0.2777273952960968
2.5917532444000244,-8.772355079650879,-1.3982137441635132,0.181959331035614
2.593975305557251,-8.71489429473877,-1.3886369466781616,0.19153612852096558
2.5961976051330566,-8.638279914855957,-1.4077905416488647,0.13407529890537262
2.598414421081543,-8.772355079650879,-1.436521053314209,0.19153612852096558
2.5995285511016846,-8.858546257019043,-1.5610195398330688,0.20111294090747833
2.6017465591430664,-8.992621421813965,-1.4748282432556152,0.1149216815829277
2.6039602756500244,-8.887276649475098,-1.4652514457702637,0.17238251864910126
2.6061885356903076,-8.667010307312012,-1.4173674583435059,0.14365209639072418
2.6072986125946045,-8.59997272491455,-1.3503297567367554,0.24899697303771973
2.609490156173706,-8.619126319885254,-1.3503297567367554,0.38307225704193115
2.6116960048675537,-8.724471092224121,-1.3982137441635132,0.4118026793003082
2.6139280796051025,-8.791508674621582,-1.359906554222107,0.28730419278144836
2.6161537170410156,-8.791508674621582,-1.3694833517074585,0.3256114423274994
2.6172842979431152,-8.686163902282715,-1.37906014919281,0.23942017555236816
2.6195037364959717,-8.638279914855957,-1.3503297567367554,0.24899697303771973
2.621717691421509,-8.695740699768066,-1.3886369466781616,0.363918662071228
2.6239418983459473,-8.78193187713623,-1.4077905416488647,0.35434186458587646
2.6250569820404053,-8.848969459533691,-1.3694833517074585,0.2777273952960968
2.6272637844085693,-8.791508674621582,-1.3694833517074585,0.2968810200691223
2.6319849491119385,-8.638279914855957,-1.37906014919281,0.26815059781074524
2.6331045627593994,-8.5903959274292,-1.3311761617660522,0.33518823981285095
2.6342110633850098,-8.676587104797363,-1.292868971824646,0.3064578175544739
2.635314464569092,-8.71489429473877,-1.3694833517074585,0.38307225704193115
2.6375234127044678,-8.858546257019043,-1.359906554222107,0.20111294090747833
2.6397171020507812,-8.925583839416504,-1.3694833517074585,0.09576806426048279
2.640836477279663,-8.868123054504395,-1.3694833517074585,0.09576806426048279
2.6430375576019287,-8.772355079650879,-1.4077905416488647,0.14365209639072418
2.6452605724334717,-8.801085472106934,-1.3215993642807007,0.2585737705230713
2.647461414337158,-8.772355079650879,-1.3694833517074585,0.28730419278144836
2.648573398590088,-8.83939266204834,-1.359906554222107,0.2585737705230713
2.6507599353790283,-8.820239067077637,-1.3024457693099976,0.28730419278144836
2.6529786586761475,-8.724471092224121,-1.359906554222107,0.33518823981285095
2.6551716327667236,-8.667010307312012,-1.2832920551300049,0.4213795065879822
2.6573755741119385,-8.667010307312012,-1.2545616626739502,0.43095630407333374
2.658486843109131,-8.791508674621582,-1.2641384601593018,0.507570743560791
2.660677433013916,-8.916007041931152,-1.2737152576446533,0.35434186458587646
2.6628663539886475,-8.925583839416504,-1.2737152576446533,0.363918662071228
2.665059804916382,-8.829815864562988,-1.3120225667953491,0.4405331015586853
2.667273759841919,-8.705317497253418,-1.3120225667953491,0.4692635238170624
2.668395519256592,-8.59997272491455,-1.2832920551300049,0.49799394607543945
2.6705925464630127,-8.743624687194824,-1.292868971824646,0.5937620401382446
2.6728084087371826,-8.887276649475098,-1.2832920551300049,0.45010992884635925
2.675001859664917,-8.935160636901855,-1.2641384601593018,0.38307225704193115
2.6761481761932373,-8.848969459533691,-1.2737152576446533,0.3926490843296051
2.678373098373413,-8.791508674621582,-1.2737152576446533,0.2777273952960968
2.6806118488311768,-8.829815864562988,-1.3024457693099976,0.3447650372982025
2.6828253269195557,-8.925583839416504,-1.3407529592514038,0.35434186458587646
2.6839377880096436,-9.050082206726074,-1.4077905416488647,0.3064578175544739
2.6861302852630615,-9.078812599182129,-1.3407529592514038,0.2777273952960968
2.688328742980957,-8.96389102935791,-1.3215993642807007,0.3256114423274994
2.6905171871185303,-8.791508674621582,-1.2832920551300049,0.45010992884635925
2.6927003860473633,-8.628703117370605,-1.2258312702178955,0.5171475410461426
2.6938045024871826,-8.743624687194824,-1.216254472732544,0.6799532771110535
2.695995569229126,-8.868123054504395,-1.2545616626739502,0.6416460275650024
2.698195695877075,-8.96389102935791,-1.2449848651885986,0.4884171485900879
2.700408458709717,-8.96389102935791,-1.2258312702178955,0.4405331015586853
2.7015206813812256,-8.877699851989746,-1.2641384601593018,0.4884171485900879
2.703728437423706,-8.848969459533691,-1.2832920551300049,0.47884035110473633
2.7059273719787598,-8.877699851989746,-1.2832920551300049,0.5841852426528931
2.708150625228882,-8.992621421813965,-1.3120225667953491,0.6320692300796509
2.7103679180145264,-8.935160636901855,-1.3120225667953491,0.5746083855628967
2.712571144104004,-8.983044624328613,-1.2737152576446533,0.49799394607543945
2.713683605194092,-8.944737434387207,-1.2641384601593018,0.5554547905921936
2.7158679962158203,-8.78193187713623,-1.3024457693099976,0.5650315880775452
2.7180542945861816,-8.83939266204834,-1.2641384601593018,0.6703764796257019
2.7191600799560547,-8.887276649475098,-1.2832920551300049,0.5937620401382446
2.7213399410247803,-9.030928611755371,-1.2641384601593018,0.5363011956214905
2.7235267162323,-9.078812599182129,-1.2449848651885986,0.3926490843296051
2.725740909576416,-9.040505409240723,-1.3311761617660522,0.4692635238170624
2.727937698364258,-8.944737434387207,-1.2832920551300049,0.4596867263317108
2.7290432453155518,-8.916007041931152,-1.2737152576446533,0.5841852426528931
2.7312228679656982,-8.96389102935791,-1.3215993642807007,0.6416460275650024
2.733412504196167,-8.96389102935791,-1.3120225667953491,0.5746083855628967
2.7356340885162354,-9.02135181427002,-1.3311761617660522,0.545877993106842
2.7378461360931396,-8.96389102935791,-1.3407529592514038,0.5841852426528931
2.7389588356018066,-8.848969459533691,-1.3503297567367554,0.5937620401382446
2.7411611080169678,-8.868123054504395,-1.2832920551300049,0.6224924325942993
2.7433507442474365,-8.954314231872559,-1.3024457693099976,0.6607996821403503
2.7455360889434814,-9.059659004211426,-1.292868971824646,0.5937620401382446
2.7466468811035156,-9.097966194152832,-1.359906554222107,0.49799394607543945
2.7488484382629395,-8.983044624328613,-1.359906554222107,0.5650315880775452
2.7510342597961426,-8.848969459533691,-1.2832920551300049,0.6129156351089478
2.7532455921173096,-8.810662269592285,-1.2832920551300049,0.7086837291717529
2.755438804626465,-8.877699851989746,-1.3215993642807007,0.6991068720817566
2.7565510272979736,-8.992621421813965,-1.3407529592514038,0.6703764796257019
2.758742570877075,-9.02135181427002,-1.3120225667953491,0.5650315880775452
2.7609450817108154,-9.011775016784668,-1.3120225667953491,0.6129156351089478
2.7632193565368652,-8.83939266204834,-1.3215993642807007,0.5650315880775452
2.7643446922302246,-8.829815864562988,-1.292868971824646,0.5841852426528931
2.7665371894836426,-9.002198219299316,-1.3407529592514038,0.6033388376235962
2.7687273025512695,-9.107542991638184,-1.4652514457702637,0.5554547905921936
2.770916223526001,-9.2033109664917,-1.4460978507995605,0.4118026793003082
2.772037982940674,-9.107542991638184,-1.4269442558288574,0.5841852426528931
2.774245262145996,-8.858546257019043,-1.4077905416488647,0.6129156351089478
2.776461362838745,-8.810662269592285,-1.3311761617660522,0.727837324142456
2.77866268157959,-8.829815864562988,-1.3503297567367554,0.8044517636299133
2.7808640003204346,-8.925583839416504,-1.3886369466781616,0.9193734526634216
2.781987428665161,-9.040505409240723,-1.3311761617660522,0.8331822156906128
2.784209966659546,-9.002198219299316,-1.3503297567367554,0.6224924325942993
2.78640079498291,-8.89685344696045,-1.3215993642807007,0.6033388376235962
2.788590431213379,-8.868123054504395,-1.359906554222107,0.6607996821403503
2.789708137512207,-8.916007041931152,-1.3694833517074585,0.7757213711738586
2.791898250579834,-9.011775016784668,-1.4460978507995605,0.8906430602073669
2.794092893600464,-9.02135181427002,-1.4269442558288574,0.7469909191131592
2.7963013648986816,-9.011775016784668,-1.436521053314209,0.727837324142456
2.7984859943389893,-8.858546257019043,-1.4460978507995605,0.7757213711738586
2.7996082305908203,-8.78193187713623,-1.359906554222107,0.7852981686592102
2.8018250465393066,-8.791508674621582,-1.3407529592514038,0.8427590131759644
2.804041862487793,-8.858546257019043,-1.4269442558288574,0.8331822156906128
2.8062477111816406,-8.983044624328613,-1.3982137441635132,0.5841852426528931
2.808450222015381,-9.050082206726074,-1.4173674583435059,0.5363011956214905
2.8095755577087402,-9.011775016784668,-1.4460978507995605,0.5363011956214905
2.811800003051758,-8.89685344696045,-1.50355863571167,0.5746083855628967
2.8140206336975098,-8.810662269592285,-1.436521053314209,0.6224924325942993
2.8162143230438232,-8.9064302444458,-1.4844050407409668,0.7182605266571045
2.8173253536224365,-8.858546257019043,-1.4173674583435059,0.689530074596405
2.819518566131592,-8.954314231872559,-1.4173674583435059,0.6607996821403503
2.8217086791992188,-8.83939266204834,-1.436521053314209,0.6799532771110535
2.823943614959717,-8.743624687194824,-1.4939818382263184,0.6703764796257019
2.825076103210449,-8.753201484680176,-1.4269442558288574,0.6991068720817566
2.8272955417633057,-8.829815864562988,-1.4269442558288574,0.6991068720817566
2.8295235633850098,-8.954314231872559,-1.4844050407409668,0.6991068720817566
2.831733226776123,-8.992621421813965,-1.4939818382263184,0.6129156351089478
2.832862377166748,-8.9064302444458,-1.50355863571167,0.6703764796257019
2.8350741863250732,-8.705317497253418,-1.4748282432556152,0.7374141216278076
2.837275505065918,-8.628703117370605,-1.4077905416488647,0.7948749661445618
2.839468002319336,-8.686163902282715,-1.3694833517074585,0.8236053586006165
2.841658115386963,-8.801085472106934,-1.436521053314209,0.8140285611152649
2.8427748680114746,-8.89685344696045,-1.3886369466781616,0.6799532771110535
2.844975709915161,-8.829815864562988,-1.4173674583435059,0.6512228846549988
2.8471662998199463,-8.705317497253418,-1.3886369466781616,0.6129156351089478
2.8493552207946777,-8.65743350982666,-1.4077905416488647,0.6033388376235962
2.8515429496765137,-8.83939266204834,-1.4460978507995605,0.6607996821403503
2.8526668548583984,-8.96389102935791,-1.4748282432556152,0.6033388376235962
2.854869842529297,-9.02135181427002,-1.5131354331970215,0.545877993106842
2.857060194015503,-8.89685344696045,-1.50355863571167,0.6129156351089478
2.8592689037323,-8.705317497253418,-1.455674648284912,0.6129156351089478
2.8603901863098145,-8.609549522399902,-1.4460978507995605,0.6607996821403503
2.862586736679077,-8.619126319885254,-1.3982137441635132,0.7852981686592102
2.8647823333740234,-8.71489429473877,-1.4269442558288574,0.9097966551780701
2.867011070251465,-8.78193187713623,-1.4269442558288574,0.7469909191131592
2.868156671524048,-8.820239067077637,-1.3886369466781616,0.7086837291717529
2.8703689575195312,-8.676587104797363,-1.3694833517074585,0.7757213711738586
2.872581720352173,-8.619126319885254,-1.3407529592514038,0.7661445140838623
2.8747851848602295,-8.686163902282715,-1.3120225667953491,0.871489405632019
2.8769748210906982,-8.65743350982666,-1.3407529592514038,0.9768342971801758
2.8780930042266846,-8.753201484680176,-1.3503297567367554,0.8619126081466675
2.8802988529205322,-8.753201484680176,-1.3215993642807007,0.8619126081466675
2.882512331008911,-8.695740699768066,-1.3311761617660522,0.9097966551780701
2.884718418121338,-8.609549522399902,-1.3503297567367554,0.8523358106613159
2.885833501815796,-8.571242332458496,-1.3024457693099976,0.9193734526634216
2.888024091720581,-8.59997272491455,-1.3407529592514038,0.9481038451194763
2.8902270793914795,-8.667010307312012,-1.3215993642807007,0.8044517636299133
2.892439603805542,-8.810662269592285,-1.3024457693099976,0.6033388376235962
2.894636631011963,-8.734047889709473,-1.3024457693099976,0.5746083855628967
2.895750045776367,-8.705317497253418,-1.3982137441635132,0.6512228846549988
2.897939920425415,-8.628703117370605,-1.3120225667953491,0.7374141216278076
2.900141716003418,-8.59997272491455,-1.3407529592514038,0.727837324142456
2.9023656845092773,-8.638279914855957,-1.3024457693099976,0.6512228846549988
2.903489828109741,-8.772355079650879,-1.3215993642807007,0.545877993106842
2.905697822570801,-8.705317497253418,-1.3311761617660522,0.7086837291717529
2.9079198837280273,-8.542511940002441,-1.3215993642807007,0.7182605266571045
2.9101219177246094,-8.465897560119629,-1.2832920551300049,0.6991068720817566
2.9112353324890137,-8.504204750061035,-1.2641384601593018,0.7757213711738586
2.9134488105773926,-8.676587104797363,-1.2737152576446533,0.6320692300796509
2.9156668186187744,-8.801085472106934,-1.292868971824646,0.6033388376235962
2.9178922176361084,-8.78193187713623,-1.3120225667953491,0.689530074596405
2.9201040267944336,-8.552088737487793,-1.2449848651885986,0.6512228846549988
2.9212491512298584,-8.427590370178223,-1.1779472827911377,0.6320692300796509
2.923466682434082,-8.542511940002441,-1.2545616626739502,0.9097966551780701
2.925682783126831,-8.53293514251709,-1.2449848651885986,0.9097966551780701
2.9278957843780518,-8.59997272491455,-1.216254472732544,0.8619126081466675
2.9290194511413574,-8.5903959274292,-1.1779472827911377,0.8331822156906128
2.93123459815979,-8.523358345031738,-1.1875240802764893,0.8044517636299133
2.9334330558776855,-8.513781547546387,-1.1492167711257935,0.7374141216278076
2.9356610774993896,-8.5903959274292,-1.1875240802764893,0.7182605266571045
2.9378764629364014,-8.734047889709473,-1.2641384601593018,0.6991068720817566
2.9390041828155518,-8.83939266204834,-1.3120225667953491,0.6799532771110535
2.9412128925323486,-8.743624687194824,-1.2641384601593018,0.7086837291717529
2.943471670150757,-8.53293514251709,-1.2258312702178955,0.7182605266571045
2.9457077980041504,-8.456320762634277,-1.158793568611145,0.8236053586006165
2.946830987930298,-8.494627952575684,-1.158793568611145,1.0055646896362305
2.9490344524383545,-8.638279914855957,-1.1875240802764893,1.0534487962722778
2.951260805130005,-8.628703117370605,-1.1875240802764893,0.9193734526634216
2.9534566402435303,-8.676587104797363,-1.1109095811843872,0.8906430602073669
2.95457124710083,-8.542511940002441,-1.091755986213684,0.8523358106613159
2.95678448677063,-8.53293514251709,-1.139639973640442,0.8427590131759644
2.958996534347534,-8.628703117370605,-1.158793568611145,0.9385270476341248
2.961195945739746,-8.65743350982666,-1.1683704853057861,1.0342950820922852
2.962315559387207,-8.695740699768066,-1.1971008777618408,0.9385270476341248
2.9645376205444336,-8.676587104797363,-1.158793568611145,0.9385270476341248
2.966740608215332,-8.59997272491455,-1.1204863786697388,0.9289502501487732
2.968977689743042,-8.513781547546387,-1.1492167711257935,0.9002198576927185
2.970113754272461,-8.552088737487793,-1.1683704853057861,0.9385270476341248
2.972338914871216,-8.638279914855957,-1.158793568611145,0.9193734526634216
2.974558115005493,-8.743624687194824,-1.1875240802764893,0.7757213711738586
2.9767537117004395,-8.78193187713623,-1.2449848651885986,0.7374141216278076
2.9778645038604736,-8.724471092224121,-1.2641384601593018,0.7661445140838623
2.9800631999969482,-8.667010307312012,-1.2066776752471924,0.7565677165985107
2.982264995574951,-8.65743350982666,-1.216254472732544,0.7757213711738586
2.9844651222229004,-8.676587104797363,-1.1971008777618408,0.8427590131759644
2.9866814613342285,-8.705317497253418,-1.1779472827911377,0.8140285611152649
2.9878079891204834,-8.724471092224121,-1.2258312702178955,0.8810662031173706
2.990006685256958,-8.647856712341309,-1.1971008777618408,0.9864110946655273
2.992223024368286,-8.47547435760498,-1.1683704853057861,0.9768342971801758
2.9944303035736084,-8.504204750061035,-1.1779472827911377,1.015141487121582
2.9966342449188232,-8.667010307312012,-1.2066776752471924,0.9864110946655273
2.9977526664733887,-8.772355079650879,-1.2066776752471924,0.9193734526634216
2.9999618530273438,-8.829815864562988,-1.216254472732544,0.8810662031173706
3.0021657943725586,-8.705317497253418,-1.2545616626739502,1.0342950820922852
3.0043561458587646,-8.619126319885254,-1.2449848651885986,1.015141487121582
3.005464792251587,-8.5903959274292,-1.2258312702178955,1.0630255937576294
3.0076897144317627,-8.65743350982666,-1.2258312702178955,1.1109095811843872
3.009889841079712,-8.810662269592285,-1.235408067703247,0.9768342971801758
3.0120887756347656,-8.820239067077637,-1.2258312702178955,0.9576807022094727
3.0142822265625,-8.686163902282715,-1.2641384601593018,1.0438719987869263
3.0153982639312744,-8.571242332458496,-1.2258312702178955,0.9864110946655273
3.017615795135498,-8.619126319885254,-1.1875240802764893,0.9768342971801758
3.0198256969451904,-8.810662269592285,-1.235408067703247,0.9289502501487732
3.022012948989868,-9.011775016784668,-1.3024457693099976,0.9289502501487732
3.023128032684326,-9.078812599182129,-1.2832920551300049,0.8331822156906128
3.025327205657959,-8.89685344696045,-1.3024457693099976,0.8906430602073669
3.0275228023529053,-8.65743350982666,-1.2641384601593018,0.9385270476341248
3.0297203063964844,-8.686163902282715,-1.235408067703247,1.015141487121582
3.0308547019958496,-8.753201484680176,-1.2737152576446533,1.158793568611145
3.033078908920288,-8.78193187713623,-1.3120225667953491,1.2641384601593018
3.0353167057037354,-8.877699851989746,-1.2641384601593018,1.158793568611145
3.0375425815582275,-8.791508674621582,-1.2449848651885986,1.1013327836990356
3.0397403240203857,-8.734047889709473,-1.235408067703247,1.0534487962722778
3.0408623218536377,-8.676587104797363,-1.2449848651885986,1.1204863786697388
3.0430688858032227,-8.772355079650879,-1.3407529592514038,1.2641384601593018
3.0452768802642822,-8.9064302444458,-1.359906554222107,1.216254472732544
3.047466278076172,-8.887276649475098,-1.292868971824646,1.091755986213684
3.0485947132110596,-8.810662269592285,-1.3311761617660522,1.1204863786697388
3.050809383392334,-8.71489429473877,-1.3311761617660522,1.1683704853057861
3.053018093109131,-8.667010307312012,-1.3120225667953491,1.2258312702178955
3.0552101135253906,-8.762778282165527,-1.3311761617660522,1.3120225667953491
3.05631947517395,-8.820239067077637,-1.3311761617660522,1.1492167711257935
3.058516263961792,-8.944737434387207,-1.3694833517074585,1.0247182846069336
3.060728073120117,-8.992621421813965,-1.3503297567367554,0.9576807022094727
3.0629265308380127,-8.916007041931152,-1.3982137441635132,0.9481038451194763
3.0651323795318604,-8.925583839416504,-1.4748282432556152,0.9959878921508789
3.0662503242492676,-8.935160636901855,-1.436521053314209,1.091755986213684
3.068455696105957,-9.002198219299316,-1.436521053314209,1.0534487962722778
3.070665121078491,-9.011775016784668,-1.4077905416488647,0.9385270476341248
3.0728819370269775,-8.89685344696045,-1.3886369466781616,1.1204863786697388
3.07399845123291,-8.801085472106934,-1.3886369466781616,1.2258312702178955
3.0762124061584473,-8.829815864562988,-1.37906014919281,1.1875240802764893
3.078423023223877,-8.887276649475098,-1.37906014919281,1.216254472732544
3.0806593894958496,-9.002198219299316,-1.4173674583435059,1.1109095811843872
3.0828537940979004,-9.059659004211426,-1.4460978507995605,1.0821791887283325
3.0839767456054688,-9.040505409240723,-1.4748282432556152,1.1683704853057861
3.086193323135376,-8.848969459533691,-1.455674648284912,1.235408067703247
3.088383197784424,-8.810662269592285,-1.3982137441635132,1.3120225667953491
3.090576410293579,-8.868123054504395,-1.4077905416488647,1.3215993642807007
3.091686487197876,-8.954314231872559,-1.436521053314209,1.3024457693099976
3.0938844680786133,-9.040505409240723,-1.4269442558288574,1.2641384601593018
3.0961074829101562,-8.9064302444458,-1.3982137441635132,1.3215993642807007
3.0983593463897705,-8.762778282165527,-1.3982137441635132,1.2449848651885986
3.0994865894317627,-8.78193187713623,-1.3311761617660522,1.1779472827911377
3.101710319519043,-8.916007041931152,-1.3886369466781616,1.216254472732544
3.103922128677368,-9.059659004211426,-1.4652514457702637,1.1779472827911377
3.1061275005340576,-9.2033109664917,-1.5322890281677246,1.1300631761550903
3.1083405017852783,-9.107542991638184,-1.522712230682373,1.1683704853057861
3.109463930130005,-8.858546257019043,-1.4652514457702637,1.2066776752471924
3.1116650104522705,-8.801085472106934,-1.436521053314209,1.216254472732544
3.113865375518799,-8.9064302444458,-1.4652514457702637,1.3407529592514038
3.1160831451416016,-9.069235801696777,-1.4939818382263184,1.3120225667953491
3.1172077655792236,-9.117119789123535,-1.4652514457702637,1.292868971824646
3.1217288970947266,-9.069235801696777,-1.4077905416488647,1.3024457693099976
3.1228363513946533,-8.925583839416504,-1.4460978507995605,1.2737152576446533
3.123934745788574,-8.877699851989746,-1.3311761617660522,1.3215993642807007
3.1250367164611816,-8.954314231872559,-1.37906014919281,1.3886369466781616
3.1272153854370117,-9.050082206726074,-1.4652514457702637,1.455674648284912
3.1293864250183105,-9.050082206726074,-1.4173674583435059,1.2641384601593018
3.1315598487854004,-9.040505409240723,-1.4269442558288574,1.2449848651885986
3.133725166320801,-8.89685344696045,-1.4077905416488647,1.3215993642807007
3.134819269180298,-8.829815864562988,-1.359906554222107,1.3982137441635132
3.1369919776916504,-8.820239067077637,-1.4173674583435059,1.4748282432556152
3.1391587257385254,-8.944737434387207,-1.4173674583435059,1.4844050407409668
3.1413300037384033,-9.08838939666748,-1.4173674583435059,1.2545616626739502
3.1434953212738037,-9.078812599182129,-1.436521053314209,1.1875240802764893
3.144594669342041,-8.973467826843262,-1.455674648284912,1.1875240802764893
3.146770477294922,-8.935160636901855,-1.4269442558288574,1.2641384601593018
3.1489408016204834,-8.925583839416504,-1.3886369466781616,1.3407529592514038
3.151116371154785,-8.973467826843262,-1.4077905416488647,1.3215993642807007
3.1532881259918213,-9.011775016784668,-1.37906014919281,1.2545616626739502
3.154383659362793,-8.954314231872559,-1.37906014919281,1.2737152576446533
3.15655517578125,-8.810662269592285,-1.3694833517074585,1.3407529592514038
3.158721923828125,-8.705317497253418,-1.3407529592514038,1.3886369466781616
3.160895586013794,-8.734047889709473,-1.2832920551300049,1.3982137441635132
3.1630635261535645,-8.9064302444458,-1.3311761617660522,1.3215993642807007
3.1641578674316406,-9.011775016784668,-1.3407529592514038,1.1683704853057861
3.1663284301757812,-9.02135181427002,-1.359906554222107,1.2258312702178955
3.16849684715271,-8.877699851989746,-1.3982137441635132,1.3120225667953491
3.1706655025482178,-8.791508674621582,-1.3694833517074585,1.2545616626739502
3.1728427410125732,-8.71489429473877,-1.3503297567367554,1.2832920551300049
3.175011157989502,-8.848969459533691,-1.359906554222107,1.3311761617660522
3.176107406616211,-8.925583839416504,-1.3024457693099976,1.2832920551300049
3.1782867908477783,-8.916007041931152,-1.3215993642807007,1.2737152576446533
3.180455207824707,-8.78193187713623,-1.3215993642807007,1.1875240802764893
3.1826272010803223,-8.676587104797363,-1.2737152576446533,1.1779472827911377
3.18479585647583,-8.743624687194824,-1.2641384601593018,1.1875240802764893
3.185891628265381,-8.916007041931152,-1.3407529592514038,1.1779472827911377
3.188063383102417,-9.040505409240723,-1.3215993642807007,1.1779472827911377
3.1902310848236084,-9.011775016784668,-1.3407529592514038,1.1779472827911377
3.1924045085906982,-8.801085472106934,-1.3215993642807007,1.2449848651885986
3.193500280380249,-8.5903959274292,-1.2545616626739502,1.2641384601593018
3.1956677436828613,-8.580819129943848,-1.1971008777618408,1.3982137441635132
3.197843074798584,-8.705317497253418,-1.235408067703247,1.5514427423477173
3.20005464553833,-8.810662269592285,-1.2545616626739502,1.455674648284912
3.202284336090088,-8.810662269592285,-1.216254472732544,1.3694833517074585
3.2045247554779053,-8.734047889709473,-1.1971008777618408,1.37906014919281
3.205676555633545,-8.647856712341309,-1.1971008777618408,1.3503297567367554
3.2079999446868896,-8.580819129943848,-1.216254472732544,1.4460978507995605
3.2102386951446533,-8.686163902282715,-1.2545616626739502,1.522712230682373
3.211348533630371,-8.772355079650879,-1.2258312702178955,1.4844050407409668
3.213527202606201,-8.743624687194824,-1.2258312702178955,1.455674648284912
3.2157585620880127,-8.695740699768066,-1.1971008777618408,1.4173674583435059
3.2179572582244873,-8.561665534973145,-1.158793568611145,1.3886369466781616
3.2201530933380127,-8.561665534973145,-1.1971008777618408,1.4269442558288574
3.2212536334991455,-8.609549522399902,-1.216254472732544,1.4748282432556152
3.223433256149292,-8.705317497253418,-1.235408067703247,1.359906554222107
3.2256057262420654,-8.791508674621582,-1.216254472732544,1.1971008777618408
3.2277772426605225,-8.734047889709473,-1.2545616626739502,1.1300631761550903
3.228872537612915,-8.695740699768066,-1.3024457693099976,1.2066776752471924
3.2310409545898438,-8.619126319885254,-1.2545616626739502,1.216254472732544
3.233229875564575,-8.609549522399902,-1.2066776752471924,1.2545616626739502
3.23539662361145,-8.676587104797363,-1.2449848651885986,1.3120225667953491
3.237607479095459,-8.753201484680176,-1.1779472827911377,1.158793568611145
