t,accel_x,accel_y,accel_z
0.1784350872039795,-8.647856712341309,-2.2409727573394775,-1.6089035272598267
0.17969918251037598,-8.561665534973145,-2.1930887699127197,-1.599326729774475
0.18081307411193848,-8.561665534973145,-2.2888567447662354,-1.4460978507995605
0.18299579620361328,-8.571242332458496,-2.183511972427368,-1.522712230682373
0.18407583236694336,-8.494627952575684,-2.2888567447662354,-1.6950948238372803
0.1862177848815918,-8.71489429473877,-2.1739351749420166,-1.580173134803772
0.18836665153503418,-8.427590370178223,-2.2409727573394775,-1.4652514457702637
0.19052958488464355,-8.5903959274292,-2.1930887699127197,-1.5418659448623657
0.1926884651184082,-8.561665534973145,-2.279279947280884,-1.580173134803772
0.19377422332763672,-8.65743350982666,-2.1930887699127197,-1.6376339197158813
0.195939302444458,-8.485051155090332,-2.2601263523101807,-1.4844050407409668
0.19810080528259277,-8.5903959274292,-2.212242364883423,-1.599326729774475
0.20026278495788574,-8.552088737487793,-2.279279947280884,-1.436521053314209
0.2025001049041748,-8.638279914855957,-2.2409727573394775,-1.6855180263519287
0.2035961151123047,-8.53293514251709,-2.183511972427368,-1.5897499322891235
0.2057652473449707,-8.628703117370605,-2.2409727573394775,-1.5418659448623657
0.20791101455688477,-8.53293514251709,-2.2601263523101807,-1.4173674583435059
0.21005487442016602,-8.609549522399902,-2.2601263523101807,-1.6376339197158813
0.21219921112060547,-8.647856712341309,-2.2409727573394775,-1.580173134803772
0.21328020095825195,-8.485051155090332,-2.2218191623687744,-1.5514427423477173
0.2154545783996582,-8.609549522399902,-2.2697031497955322,-1.5610195398330688
0.21766304969787598,-8.542511940002441,-2.2218191623687744,-1.5131354331970215
0.21984219551086426,-8.609549522399902,-2.2409727573394775,-1.436521053314209
0.22200632095336914,-8.65743350982666,-2.2409727573394775,-1.7621324062347412
0.22417116165161133,-8.465897560119629,-2.2409727573394775,-1.4748282432556152
0.22529244422912598,-8.772355079650879,-2.250549554824829,-1.580173134803772
0.22749018669128418,-8.427590370178223,-2.250549554824829,-1.522712230682373
0.22966909408569336,-8.695740699768066,-2.250549554824829,-1.5514427423477173
0.23182177543640137,-8.619126319885254,-2.164358377456665,-1.5514427423477173
0.2329115867614746,-8.523358345031738,-2.2697031497955322,-1.522712230682373
0.2350623607635498,-8.753201484680176,-2.2218191623687744,-1.5610195398330688
0.2372143268585205,-8.427590370178223,-2.2697031497955322,-1.50355863571167
0.23935937881469727,-8.78193187713623,-2.2218191623687744,-1.647210717201233
0.24152612686157227,-8.465897560119629,-2.2697031497955322,-1.522712230682373
0.24369239807128906,-8.647856712341309,-2.2601263523101807,-1.6184803247451782
0.24478435516357422,-8.561665534973145,-2.2409727573394775,-1.4748282432556152
0.2469489574432373,-8.571242332458496,-2.2697031497955322,-1.5418659448623657
0.24910974502563477,-8.59997272491455,-2.2601263523101807,-1.5131354331970215
0.2513449192047119,-8.523358345031738,-2.2218191623687744,-1.4748282432556152
0.25350141525268555,-8.676587104797363,-2.231395959854126,-1.5418659448623657
0.2545900344848633,-8.446743965148926,-2.2601263523101807,-1.4269442558288574
0.25675249099731445,-8.801085472106934,-2.2697031497955322,-1.7334020137786865
0.25890016555786133,-8.47547435760498,-2.183511972427368,-1.436521053314209
0.2610485553741455,-8.724471092224121,-2.298433542251587,-1.5610195398330688
0.2632167339324951,-8.523358345031738,-2.2697031497955322,-1.436521053314209
0.2643313407897949,-8.5903959274292,-2.298433542251587,-1.5610195398330688
0.2664928436279297,-8.772355079650879,-2.2601263523101807,-1.5514427423477173
0.26865363121032715,-8.456320762634277,-2.2409727573394775,-1.5897499322891235
0.27081847190856934,-8.71489429473877,-2.2888567447662354,-1.4652514457702637
0.2729806900024414,-8.523358345031738,-2.2601263523101807,-1.50355863571167
0.27513980865478516,-8.676587104797363,-2.298433542251587,-1.580173134803772
0.27622246742248535,-8.609549522399902,-2.231395959854126,-1.6759412288665771
0.27835512161254883,-8.647856712341309,-2.279279947280884,-1.5514427423477173
0.28049516677856445,-8.71489429473877,-2.231395959854126,-1.4269442558288574
0.282634973526001,-8.504204750061035,-2.2601263523101807,-1.50355863571167
0.2847716808319092,-8.65743350982666,-2.2697031497955322,-1.599326729774475
0.2869453430175781,-8.724471092224121,-2.2409727573394775,-1.647210717201233
0.2880425453186035,-8.571242332458496,-2.2888567447662354,-1.4269442558288574
0.29020094871520996,-8.695740699768066,-2.250549554824829,-1.522712230682373
0.29236602783203125,-8.504204750061035,-2.279279947280884,-1.4748282432556152
0.2945272922515869,-8.743624687194824,-2.2601263523101807,-1.5322890281677246
0.2966957092285156,-8.561665534973145,-2.2218191623687744,-1.5514427423477173
0.2977921962738037,-8.667010307312012,-2.279279947280884,-1.5705963373184204
0.29993367195129395,-8.743624687194824,-2.279279947280884,-1.4652514457702637
0.3020751476287842,-8.53293514251709,-2.2697031497955322,-1.455674648284912
0.30422139167785645,-8.743624687194824,-2.2888567447662354,-1.6950948238372803
0.30638766288757324,-8.465897560119629,-2.2409727573394775,-1.522712230682373
0.3074812889099121,-8.83939266204834,-2.2888567447662354,-1.522712230682373
0.3096451759338379,-8.609549522399902,-2.231395959854126,-1.4652514457702637
0.31182050704956055,-8.628703117370605,-2.279279947280884,-1.50355863571167
0.31398820877075195,-8.667010307312012,-2.2601263523101807,-1.580173134803772
0.31615471839904785,-8.619126319885254,-2.2026655673980713,-1.5897499322891235
0.31832313537597656,-8.734047889709473,-2.250549554824829,-1.522712230682373
0.31942129135131836,-8.580819129943848,-2.2888567447662354,-1.4269442558288574
0.32158398628234863,-8.695740699768066,-2.279279947280884,-1.5322890281677246
0.32370543479919434,-8.65743350982666,-2.2601263523101807,-1.4939818382263184
0.3258402347564697,-8.667010307312012,-2.231395959854126,-1.6089035272598267
0.32797932624816895,-8.667010307312012,-2.231395959854126,-1.647210717201233
0.3290543556213379,-8.676587104797363,-2.279279947280884,-1.4077905416488647
0.33118653297424316,-8.734047889709473,-2.2697031497955322,-1.5610195398330688
0.3333408832550049,-8.523358345031738,-2.2888567447662354,-1.6280571222305298
0.33550524711608887,-8.734047889709473,-2.231395959854126,-1.5610195398330688
0.33767008781433105,-8.638279914855957,-2.2218191623687744,-1.522712230682373
0.33881354331970215,-8.619126319885254,-2.298433542251587,-1.5131354331970215
0.3410017490386963,-8.724471092224121,-2.2409727573394775,-1.5418659448623657
0.34325313568115234,-8.628703117370605,-2.2697031497955322,-1.4269442558288574
0.3454315662384033,-8.801085472106934,-2.2218191623687744,-1.5514427423477173
0.3475911617279053,-8.504204750061035,-2.298433542251587,-1.50355863571167
0.34866976737976074,-8.858546257019043,-2.2218191623687744,-1.6280571222305298
0.35083675384521484,-8.5903959274292,-2.2601263523101807,-1.292868971824646
0.35299110412597656,-8.71489429473877,-2.2697031497955322,-1.5610195398330688
0.355147123336792,-8.513781547546387,-2.2026655673980713,-1.522712230682373
0.3573119640350342,-8.647856712341309,-2.2026655673980713,-1.6089035272598267
0.3594803810119629,-8.810662269592285,-2.2409727573394775,-1.50355863571167
0.36057472229003906,-8.47547435760498,-2.3080103397369385,-1.3886369466781616
0.36274147033691406,-8.753201484680176,-2.2409727573394775,-1.6376339197158813
0.36490559577941895,-8.494627952575684,-2.1547815799713135,-1.4748282432556152
0.3670685291290283,-8.848969459533691,-2.250549554824829,-1.6280571222305298
0.36925458908081055,-8.504204750061035,-2.2697031497955322,-1.3886369466781616
0.370347261428833,-8.647856712341309,-2.212242364883423,-1.5418659448623657
0.3724846839904785,-8.791508674621582,-2.2218191623687744,-1.455674648284912
0.37465381622314453,-8.5903959274292,-2.2218191623687744,-1.5514427423477173
0.3768017292022705,-8.724471092224121,-2.1930887699127197,-1.6089035272598267
0.3779423236846924,-8.571242332458496,-2.2026655673980713,-1.50355863571167
0.38015174865722656,-8.791508674621582,-2.231395959854126,-1.4077905416488647
0.3823223114013672,-8.628703117370605,-2.1930887699127197,-1.7046716213226318
0.3844907283782959,-8.628703117370605,-2.2409727573394775,-1.4748282432556152
0.38674449920654297,-8.724471092224121,-2.1930887699127197,-1.4748282432556152
0.38787317276000977,-8.494627952575684,-2.2218191623687744,-1.455674648284912
0.39017653465270996,-8.772355079650879,-2.231395959854126,-1.580173134803772
0.3923661708831787,-8.580819129943848,-2.2409727573394775,-1.37906014919281
0.3945488929748535,-8.762778282165527,-2.1739351749420166,-1.6184803247451782
0.3956303596496582,-8.561665534973145,-2.2218191623687744,-1.4652514457702637
0.3977701663970947,-8.667010307312012,-2.231395959854126,-1.6184803247451782
0.39991116523742676,-8.743624687194824,-2.2601263523101807,-1.4652514457702637
0.4020962715148926,-8.59997272491455,-2.2026655673980713,-1.4460978507995605
0.4042942523956299,-8.647856712341309,-2.2697031497955322,-1.6280571222305298
0.40648984909057617,-8.609549522399902,-2.212242364883423,-1.4844050407409668
0.40759801864624023,-8.791508674621582,-2.212242364883423,-1.599326729774475
0.4097774028778076,-8.513781547546387,-2.2218191623687744,-1.4077905416488647
0.4119455814361572,-8.647856712341309,-2.2218191623687744,-1.647210717201233
0.4141104221343994,-8.638279914855957,-2.2218191623687744,-1.5418659448623657
0.41628074645996094,-8.647856712341309,-2.1930887699127197,-1.5418659448623657
0.41736531257629395,-8.667010307312012,-2.231395959854126,-1.522712230682373
0.41951417922973633,-8.494627952575684,-2.250549554824829,-1.4748282432556152
0.42169737815856934,-8.734047889709473,-2.231395959854126,-1.4939818382263184
0.4238569736480713,-8.580819129943848,-2.1930887699127197,-1.50355863571167
0.4260563850402832,-8.667010307312012,-2.2601263523101807,-1.6376339197158813
0.42716550827026367,-8.5903959274292,-2.183511972427368,-1.4748282432556152
0.4295074939727783,-8.667010307312012,-2.279279947280884,-1.5610195398330688
0.43172454833984375,-8.667010307312012,-2.183511972427368,-1.50355863571167
0.4339299201965332,-8.619126319885254,-2.250549554824829,-1.7142484188079834
0.43503665924072266,-8.686163902282715,-2.2409727573394775,-1.4460978507995605
0.4372367858886719,-8.580819129943848,-2.2409727573394775,-1.4652514457702637
0.4394087791442871,-8.619126319885254,-2.212242364883423,-1.5418659448623657
0.44154953956604004,-8.686163902282715,-2.2409727573394775,-1.6280571222305298
0.442638635635376,-8.647856712341309,-2.231395959854126,-1.4844050407409668
0.4448130130767822,-8.561665534973145,-2.183511972427368,-1.4844050407409668
0.44696569442749023,-8.59997272491455,-2.2409727573394775,-1.5322890281677246
0.44915080070495605,-8.609549522399902,-2.231395959854126,-1.455674648284912
0.45134878158569336,-8.676587104797363,-2.1739351749420166,-1.5897499322891235
0.4535558223724365,-8.5903959274292,-2.2218191623687744,-1.4844050407409668
0.4547417163848877,-8.580819129943848,-2.250549554824829,-1.4939818382263184
0.4569525718688965,-8.667010307312012,-2.2697031497955322,-1.599326729774475
0.45916223526000977,-8.59997272491455,-2.1739351749420166,-1.5418659448623657
0.46140193939208984,-8.638279914855957,-2.2888567447662354,-1.4460978507995605
0.4624969959259033,-8.542511940002441,-2.2409727573394775,-1.5514427423477173
0.4646430015563965,-8.59997272491455,-2.298433542251587,-1.580173134803772
0.46678829193115234,-8.724471092224121,-2.231395959854126,-1.5897499322891235
0.4689335823059082,-8.542511940002441,-2.212242364883423,-1.5705963373184204
0.47003793716430664,-8.628703117370605,-2.2026655673980713,-1.4269442558288574
0.47223472595214844,-8.561665534973145,-2.250549554824829,-1.5131354331970215
0.4744131565093994,-8.619126319885254,-2.2409727573394775,-1.580173134803772
0.4765896797180176,-8.65743350982666,-2.2601263523101807,-1.5514427423477173
0.4787788391113281,-8.552088737487793,-2.2888567447662354,-1.4748282432556152
0.48096752166748047,-8.65743350982666,-2.164358377456665,-1.4652514457702637
0.4821171760559082,-8.504204750061035,-2.2697031497955322,-1.5131354331970215
0.48430323600769043,-8.724471092224121,-2.250549554824829,-1.7046716213226318
0.4864814281463623,-8.494627952575684,-2.2601263523101807,-1.50355863571167
0.48864245414733887,-8.638279914855957,-2.2888567447662354,-1.455674648284912
0.4897286891937256,-8.628703117370605,-2.2888567447662354,-1.455674648284912
0.4918835163116455,-8.542511940002441,-2.2218191623687744,-1.6280571222305298
0.49402546882629395,-8.724471092224121,-2.2409727573394775,-1.6759412288665771
0.49619626998901367,-8.494627952575684,-2.1930887699127197,-1.4844050407409668
0.4983959197998047,-8.647856712341309,-2.2888567447662354,-1.4748282432556152
0.5005769729614258,-8.504204750061035,-2.231395959854126,-1.4460978507995605
0.5016789436340332,-8.609549522399902,-2.2026655673980713,-1.6855180263519287
0.5038492679595947,-8.628703117370605,-2.2601263523101807,-1.5514427423477173
0.506150484085083,-8.561665534973145,-2.183511972427368,-1.5131354331970215
0.5083181858062744,-8.628703117370605,-2.298433542251587,-1.4652514457702637
0.5093955993652344,-8.523358345031738,-2.2218191623687744,-1.4173674583435059
0.5115392208099365,-8.647856712341309,-2.2697031497955322,-1.6663644313812256
0.513700008392334,-8.504204750061035,-2.212242364883423,-1.599326729774475
0.5158689022064209,-8.647856712341309,-2.298433542251587,-1.4939818382263184
0.5180315971374512,-8.59997272491455,-2.2218191623687744,-1.5514427423477173
0.5191340446472168,-8.53293514251709,-2.2697031497955322,-1.5322890281677246
0.5213136672973633,-8.647856712341309,-2.2026655673980713,-1.5322890281677246
0.5235013961791992,-8.523358345031738,-2.231395959854126,-1.647210717201233
0.525728702545166,-8.561665534973145,-2.279279947280884,-1.4748282432556152
0.5279281139373779,-8.743624687194824,-2.2697031497955322,-1.6376339197158813
0.5290560722351074,-8.418013572692871,-2.3080103397369385,-1.436521053314209
0.5312483310699463,-8.734047889709473,-2.231395959854126,-1.6855180263519287
0.5333943367004395,-8.437167167663574,-2.2026655673980713,-1.522712230682373
0.5355539321899414,-8.71489429473877,-2.2409727573394775,-1.6376339197158813
0.5377535820007324,-8.59997272491455,-2.3080103397369385,-1.4748282432556152
0.5388391017913818,-8.53293514251709,-2.298433542251587,-1.4939818382263184
0.540980339050293,-8.619126319885254,-2.1930887699127197,-1.5514427423477173
0.543144941329956,-8.485051155090332,-2.279279947280884,-1.7812861204147339
0.5453238487243652,-8.647856712341309,-2.250549554824829,-1.4460978507995605
0.5475258827209473,-8.513781547546387,-2.2601263523101807,-1.4460978507995605
0.5486314296722412,-8.676587104797363,-2.3271639347076416,-1.50355863571167
0.550811767578125,-8.504204750061035,-2.2026655673980713,-1.5131354331970215
0.5529928207397461,-8.628703117370605,-2.2218191623687744,-1.7908629179000854
0.5551493167877197,-8.628703117370605,-2.212242364883423,-1.4844050407409668
0.5572903156280518,-8.552088737487793,-2.2697031497955322,-1.436521053314209
0.5583662986755371,-8.542511940002441,-2.250549554824829,-1.6280571222305298
0.5605037212371826,-8.686163902282715,-2.2888567447662354,-1.5897499322891235
0.5626621246337891,-8.59997272491455,-2.2026655673980713,-1.4748282432556152
0.564826250076294,-8.485051155090332,-2.250549554824829,-1.580173134803772
0.5669968128204346,-8.5903959274292,-2.2697031497955322,-1.4844050407409668
0.5681345462799072,-8.647856712341309,-2.231395959854126,-1.599326729774475
0.5703306198120117,-8.59997272491455,-2.2218191623687744,-1.5322890281677246
0.572512149810791,-8.504204750061035,-2.2409727573394775,-1.4748282432556152
0.5747168064117432,-8.561665534973145,-2.2697031497955322,-1.5514427423477173
0.5768885612487793,-8.638279914855957,-2.250549554824829,-1.6280571222305298
0.5780050754547119,-8.628703117370605,-2.2601263523101807,-1.4844050407409668
0.5801453590393066,-8.571242332458496,-2.212242364883423,-1.4748282432556152
0.5823709964752197,-8.542511940002441,-2.231395959854126,-1.4939818382263184
0.5845637321472168,-8.647856712341309,-2.2409727573394775,-1.6089035272598267
0.586721658706665,-8.53293514251709,-2.231395959854126,-1.4748282432556152
0.5878236293792725,-8.59997272491455,-2.2218191623687744,-1.5131354331970215
0.5899994373321533,-8.456320762634277,-2.2409727573394775,-1.4269442558288574
0.5921773910522461,-8.647856712341309,-2.2601263523101807,-1.7334020137786865
0.5943751335144043,-8.513781547546387,-2.231395959854126,-1.5610195398330688
0.5965983867645264,-8.619126319885254,-2.212242364883423,-1.5514427423477173
0.5977082252502441,-8.513781547546387,-2.298433542251587,-1.455674648284912
0.5998821258544922,-8.523358345031738,-2.250549554824829,-1.4939818382263184
0.6020276546478271,-8.695740699768066,-2.2409727573394775,-1.6950948238372803
0.6042304039001465,-8.59997272491455,-2.2601263523101807,-1.5705963373184204
0.6053268909454346,-8.619126319885254,-2.231395959854126,-1.5610195398330688
0.6074917316436768,-8.513781547546387,-2.212242364883423,-1.50355863571167
0.609637975692749,-8.609549522399902,-2.231395959854126,-1.4844050407409668
0.611802339553833,-8.619126319885254,-2.250549554824829,-1.522712230682373
0.6139824390411377,-8.504204750061035,-2.1930887699127197,-1.656787633895874
0.6161608695983887,-8.580819129943848,-2.2888567447662354,-1.5131354331970215
0.6172611713409424,-8.5903959274292,-2.231395959854126,-1.5131354331970215
0.6194372177124023,-8.619126319885254,-2.250549554824829,-1.599326729774475
0.6216135025024414,-8.552088737487793,-2.212242364883423,-1.50355863571167
0.623805046081543,-8.59997272491455,-2.2218191623687744,-1.647210717201233
0.6259698867797852,-8.504204750061035,-2.2026655673980713,-1.5131354331970215
0.627047061920166,-8.638279914855957,-2.279279947280884,-1.5418659448623657
0.6292116641998291,-8.542511940002441,-2.2218191623687744,-1.5131354331970215
0.6313760280609131,-8.53293514251709,-2.183511972427368,-1.4844050407409668
0.63356614112854,-8.552088737487793,-2.2409727573394775,-1.5514427423477173
0.6357805728912354,-8.552088737487793,-2.1930887699127197,-1.656787633895874
0.6368825435638428,-8.628703117370605,-2.2697031497955322,-1.580173134803772
0.6390824317932129,-8.571242332458496,-2.212242364883423,-1.4460978507995605
0.6412603855133057,-8.5903959274292,-2.279279947280884,-1.6280571222305298
0.6434328556060791,-8.561665534973145,-2.2026655673980713,-1.5322890281677246
0.6456069946289062,-8.638279914855957,-2.212242364883423,-1.6089035272598267
0.6467030048370361,-8.513781547546387,-2.231395959854126,-1.5131354331970215
0.6488497257232666,-8.628703117370605,-2.2697031497955322,-1.580173134803772
0.6509890556335449,-8.561665534973145,-2.2026655673980713,-1.4748282432556152
0.6531295776367188,-8.580819129943848,-2.1930887699127197,-1.6184803247451782
0.6552712917327881,-8.571242332458496,-2.231395959854126,-1.580173134803772
0.6563541889190674,-8.47547435760498,-2.164358377456665,-1.4652514457702637
0.6585266590118408,-8.65743350982666,-2.279279947280884,-1.5131354331970215
0.6607017517089844,-8.53293514251709,-2.145204782485962,-1.4844050407409668
0.6628899574279785,-8.65743350982666,-2.2026655673980713,-1.5897499322891235
0.6650629043579102,-8.513781547546387,-2.164358377456665,-1.6089035272598267
0.6707198619842529,-8.609549522399902,-2.212242364883423,-1.5514427423477173
0.6718161106109619,-8.628703117370605,-2.1930887699127197,-1.455674648284912
0.6728954315185547,-8.542511940002441,-2.250549554824829,-1.5897499322891235
0.6739685535430908,-8.580819129943848,-2.2026655673980713,-1.6280571222305298
0.675041675567627,-8.446743965148926,-2.164358377456665,-1.5514427423477173
0.6761136054992676,-8.676587104797363,-2.2697031497955322,-1.5610195398330688
0.6782450675964355,-8.47547435760498,-2.164358377456665,-1.4652514457702637
0.6804027557373047,-8.59997272491455,-2.2409727573394775,-1.5610195398330688
0.6825711727142334,-8.65743350982666,-2.2601263523101807,-1.5610195398330688
0.6847388744354248,-8.504204750061035,-2.1930887699127197,-1.6663644313812256
0.6858367919921875,-8.609549522399902,-2.2697031497955322,-1.4844050407409668
0.6880078315734863,-8.609549522399902,-2.2026655673980713,-1.4748282432556152
0.6901774406433105,-8.542511940002441,-2.183511972427368,-1.4844050407409668
0.6923484802246094,-8.609549522399902,-2.2026655673980713,-1.6376339197158813
0.6945009231567383,-8.561665534973145,-2.183511972427368,-1.580173134803772
0.695589542388916,-8.513781547546387,-2.1547815799713135,-1.6089035272598267
0.6977379322052002,-8.609549522399902,-2.31758713722229,-1.4939818382263184
0.6998794078826904,-8.494627952575684,-2.1739351749420166,-1.5897499322891235
0.7020187377929688,-8.561665534973145,-2.2601263523101807,-1.4844050407409668
0.7041757106781006,-8.609549522399902,-2.1930887699127197,-1.4939818382263184
0.7053313255310059,-8.456320762634277,-2.2409727573394775,-1.4939818382263184
0.7075371742248535,-8.667010307312012,-2.2409727573394775,-1.6184803247451782
0.7097127437591553,-8.523358345031738,-2.212242364883423,-1.5610195398330688
0.7118854522705078,-8.609549522399902,-2.231395959854126,-1.5322890281677246
0.7140507698059082,-8.485051155090332,-2.2026655673980713,-1.4460978507995605
0.7151460647583008,-8.552088737487793,-2.250549554824829,-1.5418659448623657
0.7173376083374023,-8.638279914855957,-2.231395959854126,-1.580173134803772
0.7194905281066895,-8.542511940002441,-2.2601263523101807,-1.6376339197158813
0.721637487411499,-8.580819129943848,-2.231395959854126,-1.4748282432556152
0.7238130569458008,-8.47547435760498,-2.250549554824829,-1.4269442558288574
0.7248947620391846,-8.580819129943848,-2.212242364883423,-1.5514427423477173
0.7270479202270508,-8.609549522399902,-2.2026655673980713,-1.6759412288665771
0.7292137145996094,-8.5903959274292,-2.212242364883423,-1.647210717201233
0.7313847541809082,-8.619126319885254,-2.2888567447662354,-1.50355863571167
0.7335488796234131,-8.561665534973145,-2.2409727573394775,-1.4460978507995605
0.735713005065918,-8.552088737487793,-2.2697031497955322,-1.6089035272598267
0.7368144989013672,-8.65743350982666,-2.1930887699127197,-1.6759412288665771
0.7389898300170898,-8.53293514251709,-2.250549554824829,-1.455674648284912
0.7411682605743408,-8.571242332458496,-2.279279947280884,-1.5322890281677246
0.7433104515075684,-8.53293514251709,-2.2697031497955322,-1.4748282432556152
0.7454733848571777,-8.609549522399902,-2.2409727573394775,-1.647210717201233
0.7465629577636719,-8.542511940002441,-2.183511972427368,-1.5514427423477173
0.7487082481384277,-8.580819129943848,-2.212242364883423,-1.5610195398330688
0.7508673667907715,-8.465897560119629,-2.2601263523101807,-1.359906554222107
0.7530462741851807,-8.65743350982666,-2.3367409706115723,-1.6376339197158813
0.7552573680877686,-8.580819129943848,-2.1930887699127197,-1.5897499322891235
0.7563719749450684,-8.580819129943848,-2.231395959854126,-1.5610195398330688
0.7585444450378418,-8.561665534973145,-2.1739351749420166,-1.4652514457702637
0.7607264518737793,-8.513781547546387,-2.3080103397369385,-1.4844050407409668
0.762906551361084,-8.734047889709473,-2.2888567447662354,-1.4939818382263184
0.7650561332702637,-8.504204750061035,-2.2218191623687744,-1.6280571222305298
0.7661287784576416,-8.5903959274292,-2.250549554824829,-1.6089035272598267
0.7682595252990723,-8.619126319885254,-2.250549554824829,-1.4173674583435059
0.7704014778137207,-8.523358345031738,-2.250549554824829,-1.580173134803772
0.7725436687469482,-8.628703117370605,-2.279279947280884,-1.5322890281677246
0.7747044563293457,-8.619126319885254,-2.231395959854126,-1.7142484188079834
0.7768664360046387,-8.5903959274292,-2.231395959854126,-1.436521053314209
0.7779576778411865,-8.638279914855957,-2.2601263523101807,-1.647210717201233
0.7801182270050049,-8.53293514251709,-2.298433542251587,-1.3982137441635132
0.7822751998901367,-8.628703117370605,-2.231395959854126,-1.580173134803772
0.784433126449585,-8.571242332458496,-2.250549554824829,-1.656787633895874
0.7865810394287109,-8.667010307312012,-2.183511972427368,-1.522712230682373
0.7876560688018799,-8.628703117370605,-2.2601263523101807,-1.436521053314209
0.7897922992706299,-8.542511940002441,-2.279279947280884,-1.4939818382263184
0.7919301986694336,-8.5903959274292,-2.2409727573394775,-1.4844050407409668
0.794079065322876,-8.65743350982666,-2.231395959854126,-1.7142484188079834
0.7962284088134766,-8.628703117370605,-2.2888567447662354,-1.4748282432556152
0.7983841896057129,-8.638279914855957,-2.231395959854126,-1.5418659448623657
0.7994828224182129,-8.580819129943848,-2.2409727573394775,-1.522712230682373
0.8016536235809326,-8.695740699768066,-2.2409727573394775,-1.5418659448623657
0.8038272857666016,-8.647856712341309,-2.231395959854126,-1.742978811264038
0.806002140045166,-8.504204750061035,-2.3080103397369385,-1.50355863571167
0.8082141876220703,-8.695740699768066,-2.2409727573394775,-1.4173674583435059
0.8093218803405762,-8.53293514251709,-2.31758713722229,-1.4844050407409668
0.8114845752716064,-8.78193187713623,-2.2601263523101807,-1.8100165128707886
0.8136305809020996,-8.523358345031738,-2.2026655673980713,-1.4844050407409668
0.8157777786254883,-8.734047889709473,-2.2697031497955322,-1.6950948238372803
0.8179619312286377,-8.523358345031738,-2.31758713722229,-1.235408067703247
0.8190727233886719,-8.628703117370605,-2.2601263523101807,-1.656787633895874
0.8212583065032959,-8.724471092224121,-2.2218191623687744,-1.6950948238372803
0.8234541416168213,-8.5903959274292,-2.183511972427368,-1.50355863571167
0.8256552219390869,-8.705317497253418,-2.346317768096924,-1.4844050407409668
0.8278248310089111,-8.465897560119629,-2.2218191623687744,-1.4939818382263184
0.8289263248443604,-8.78193187713623,-2.31758713722229,-1.3982137441635132
0.8310959339141846,-8.667010307312012,-2.1547815799713135,-1.6950948238372803
0.8332555294036865,-8.571242332458496,-2.2601263523101807,-1.6280571222305298
0.835397481918335,-8.791508674621582,-2.279279947280884,-1.5610195398330688
0.8375346660614014,-8.53293514251709,-2.31758713722229,-1.3982137441635132
0.8396711349487305,-8.743624687194824,-2.212242364883423,-1.4939818382263184
0.8407449722290039,-8.542511940002441,-2.298433542251587,-1.6184803247451782
0.8428821563720703,-8.676587104797363,-2.183511972427368,-1.6855180263519287
0.8450384140014648,-8.647856712341309,-2.279279947280884,-1.4269442558288574
0.8472075462341309,-8.686163902282715,-2.3367409706115723,-1.5418659448623657
0.8493809700012207,-8.5903959274292,-2.2026655673980713,-1.436521053314209
0.8504767417907715,-8.638279914855957,-2.2601263523101807,-1.742978811264038
0.8526492118835449,-8.743624687194824,-2.2409727573394775,-1.4652514457702637
0.8548221588134766,-8.609549522399902,-2.231395959854126,-1.4844050407409668
0.8569831848144531,-8.695740699768066,-2.3080103397369385,-1.5131354331970215
0.8591198921203613,-8.5903959274292,-2.2409727573394775,-1.50355863571167
0.8601970672607422,-8.734047889709473,-2.250549554824829,-1.6184803247451782
0.8623318672180176,-8.523358345031738,-2.212242364883423,-1.4939818382263184
0.8644723892211914,-8.810662269592285,-2.3080103397369385,-1.5897499322891235
0.8666489124298096,-8.609549522399902,-2.231395959854126,-1.4460978507995605
0.8689360618591309,-8.686163902282715,-2.2888567447662354,-1.6280571222305298
0.8700418472290039,-8.724471092224121,-2.1930887699127197,-1.6280571222305298
0.8722138404846191,-8.561665534973145,-2.2697031497955322,-1.50355863571167
0.8743855953216553,-8.791508674621582,-2.2697031497955322,-1.4652514457702637
0.8765554428100586,-8.504204750061035,-2.2697031497955322,-1.5514427423477173
0.8787245750427246,-8.820239067077637,-2.279279947280884,-1.6184803247451782
0.8808903694152832,-8.542511940002441,-2.1930887699127197,-1.5514427423477173
0.8819723129272461,-8.628703117370605,-2.279279947280884,-1.5322890281677246
0.8842010498046875,-8.676587104797363,-2.212242364883423,-1.455674648284912
0.8864526748657227,-8.628703117370605,-2.2601263523101807,-1.656787633895874
0.8886551856994629,-8.762778282165527,-2.2409727573394775,-1.4939818382263184
0.8897435665130615,-8.619126319885254,-2.231395959854126,-1.4460978507995605
0.891963005065918,-8.609549522399902,-2.2218191623687744,-1.5418659448623657
0.8941802978515625,-8.5903959274292,-2.231395959854126,-1.4269442558288574
0.8963980674743652,-8.791508674621582,-2.212242364883423,-1.6663644313812256
0.8986661434173584,-8.676587104797363,-2.279279947280884,-1.6089035272598267
0.8997797966003418,-8.638279914855957,-2.2026655673980713,-1.5418659448623657
0.9019577503204346,-8.65743350982666,-2.298433542251587,-1.522712230682373
0.9041509628295898,-8.628703117370605,-2.1739351749420166,-1.436521053314209
0.905238151550293,-8.647856712341309,-2.3080103397369385,-1.6089035272598267
0.9073803424835205,-8.676587104797363,-2.212242364883423,-1.599326729774475
0.9095468521118164,-8.676587104797363,-2.250549554824829,-1.455674648284912
0.9116978645324707,-8.753201484680176,-2.2697031497955322,-1.4748282432556152
0.9138624668121338,-8.580819129943848,-2.2218191623687744,-1.5131354331970215
0.9160878658294678,-8.686163902282715,-2.2026655673980713,-1.5514427423477173
0.9171791076660156,-8.65743350982666,-2.250549554824829,-1.50355863571167
0.9193427562713623,-8.65743350982666,-2.231395959854126,-1.5322890281677246
0.9215023517608643,-8.724471092224121,-2.2218191623687744,-1.5131354331970215
0.9236669540405273,-8.676587104797363,-2.2888567447662354,-1.4939818382263184
0.925847053527832,-8.65743350982666,-2.164358377456665,-1.5322890281677246
0.9269390106201172,-8.609549522399902,-2.2601263523101807,-1.522712230682373
0.9290821552276611,-8.772355079650879,-2.279279947280884,-1.599326729774475
0.931243896484375,-8.580819129943848,-2.2218191623687744,-1.4844050407409668
0.9333972930908203,-8.705317497253418,-2.2601263523101807,-1.5705963373184204
0.9355673789978027,-8.705317497253418,-2.2601263523101807,-1.5131354331970215
0.9377450942993164,-8.485051155090332,-2.2218191623687744,-1.455674648284912
0.938845157623291,-8.83939266204834,-2.2697031497955322,-1.6663644313812256
0.9410531520843506,-8.504204750061035,-2.212242364883423,-1.4460978507995605
0.9432282447814941,-8.78193187713623,-2.279279947280884,-1.522712230682373
0.9455118179321289,-8.542511940002441,-2.231395959854126,-1.5322890281677246
0.9466497898101807,-8.628703117370605,-2.212242364883423,-1.4460978507995605
0.9488296508789062,-8.695740699768066,-2.2026655673980713,-1.5705963373184204
0.950981616973877,-8.542511940002441,-2.2601263523101807,-1.5418659448623657
0.9531276226043701,-8.753201484680176,-2.2409727573394775,-1.5610195398330688
0.9553000926971436,-8.609549522399902,-2.2697031497955322,-1.4844050407409668
0.9563925266265869,-8.667010307312012,-2.2218191623687744,-1.580173134803772
0.9585604667663574,-8.542511940002441,-2.2697031497955322,-1.5610195398330688
0.9607353210449219,-8.638279914855957,-2.1739351749420166,-1.5705963373184204
0.9629156589508057,-8.65743350982666,-2.31758713722229,-1.5610195398330688
0.9650962352752686,-8.65743350982666,-2.2601263523101807,-1.522712230682373
0.9661996364593506,-8.59997272491455,-2.2218191623687744,-1.522712230682373
0.9683718681335449,-8.59997272491455,-2.2601263523101807,-1.5418659448623657
0.970543622970581,-8.676587104797363,-2.2218191623687744,-1.5131354331970215
0.9727075099945068,-8.619126319885254,-2.31758713722229,-1.599326729774475
0.9748556613922119,-8.676587104797363,-2.231395959854126,-1.436521053314209
0.9759304523468018,-8.619126319885254,-2.279279947280884,-1.455674648284912
0.978095531463623,-8.628703117370605,-2.212242364883423,-1.6184803247451782
0.9802682399749756,-8.580819129943848,-2.250549554824829,-1.5322890281677246
0.9824411869049072,-8.695740699768066,-2.250549554824829,-1.5610195398330688
0.9846115112304688,-8.609549522399902,-2.2888567447662354,-1.4939818382263184
0.985706090927124,-8.609549522399902,-2.2697031497955322,-1.522712230682373
0.9878790378570557,-8.647856712341309,-2.279279947280884,-1.723825216293335
0.9900505542755127,-8.638279914855957,-2.212242364883423,-1.5514427423477173
0.9922654628753662,-8.580819129943848,-2.250549554824829,-1.4269442558288574
0.994483470916748,-8.638279914855957,-2.250549554824829,-1.6184803247451782
0.9966340065002441,-8.628703117370605,-2.2218191623687744,-1.5705963373184204
0.9977214336395264,-8.724471092224121,-2.3080103397369385,-1.5610195398330688
0.9998862743377686,-8.53293514251709,-2.2026655673980713,-1.5514427423477173
1.0059669017791748,-8.542511940002441,-2.31758713722229,-1.5131354331970215
1.0071616172790527,-8.695740699768066,-2.1739351749420166,-1.50355863571167
1.0082745552062988,-8.561665534973145,-2.2409727573394775,-1.7812861204147339
1.0093824863433838,-8.705317497253418,-2.2697031497955322,-1.580173134803772
1.0104808807373047,-8.571242332458496,-2.2218191623687744,-1.4173674583435059
1.0115835666656494,-8.53293514251709,-2.183511972427368,-1.5514427423477173
1.0137906074523926,-8.360552787780762,-2.31758713722229,-1.4844050407409668
1.0159878730773926,-8.015787124633789,-2.4133553504943848,-0.9576807022094727
1.0170917510986328,-8.044517517089844,-2.231395959854126,0.5650315880775452
1.0203173160552979,-8.504204750061035,-2.3367409706115723,-0.1628057211637497
1.0213940143585205,-8.71489429473877,-2.126051187515259,-1.8195933103561401
1.0235555171966553,-9.069235801696777,-2.0590133666992188,-2.451662540435791
1.0257651805877686,-8.667010307312012,-1.7525556087493896,-0.4692635238170624
1.0268516540527344,-7.249642848968506,-1.8962076902389526,1.5131354331970215
1.029020071029663,-6.435614109039307,-2.011129379272461,2.5761611461639404
1.0312442779541016,-6.57926607131958,-2.011129379272461,1.8579005002975464
1.033440113067627,-6.9910688400268555,-2.1930887699127197,1.4077905416488647
1.0356206893920898,-7.163451671600342,-2.279279947280884,1.3024457693099976
1.03672456741333,-6.732495307922363,-2.0398597717285156,1.5897499322891235
1.0389046669006348,-6.847416877746582,-1.742978811264038,0.8044517636299133
1.0410830974578857,-6.904877662658691,-1.522712230682373,-1.2449848651885986
1.0432684421539307,-7.393294811248779,-1.6855180263519287,-3.5625722408294678
1.0443708896636963,-8.015787124633789,-2.1164743900299072,-3.869029998779297
1.0465295314788818,-8.341399192810059,-2.5474305152893066,-3.6583402156829834
1.048708438873291,-8.063671112060547,-2.691082715988159,-3.5721490383148193
1.0508692264556885,-7.556100368499756,-2.557007312774658,-4.223371982574463
1.05307936668396,-7.038952827453613,-2.5761611461639404,-4.2329487800598145
1.055314540863037,-7.287950038909912,-2.7772738933563232,-3.869029998779297
1.056424617767334,-7.479485988616943,-3.112462282180786,-3.5434184074401855
1.058605432510376,-7.33583402633667,-3.064578056335449,-3.7158010005950928
1.0608415603637695,-6.885724067687988,-2.63362193107605,-3.8977603912353516
1.063025712966919,-6.368576526641846,-2.2697031497955322,-3.8307228088378906
1.0641283988952637,-6.368576526641846,-2.3558945655822754,-3.485957622528076
1.0662755966186523,-6.703764915466309,-2.7102363109588623,-3.2848446369171143
1.068420171737671,-6.943184852600098,-2.920926094055176,-3.00711727142334
1.0705876350402832,-6.694188117980957,-2.9017724990844727,-2.911349296569824
1.0727500915527344,-6.167463779449463,-2.6815059185028076,-2.806004285812378
1.07383394241333,-6.100425720214844,-2.5953147411346436,-2.786850690841675
1.0761075019836426,-6.311115741729736,-2.557007312774658,-2.719813108444214
1.0782899856567383,-6.607996463775635,-2.470816135406494,-2.940079689025879
1.0804729461669922,-6.598419666290283,-2.183511972427368,-3.112462282180786
1.082672357559204,-6.3973069190979,-1.9345149993896484,-3.2848446369171143
1.0837726593017578,-6.186617374420166,-1.7908629179000854,-3.179499864578247
1.085944414138794,-6.167463779449463,-1.944091796875,-2.873042106628418
1.088132619857788,-6.215347766876221,-2.126051187515259,-2.1547815799713135
1.0902979373931885,-6.320692539215088,-2.38462495803833,-1.4748282432556152
1.0924415588378906,-6.1770405769348145,-2.31758713722229,-1.4077905416488647
1.0935401916503906,-5.851428985595703,-2.365471363067627,-1.4460978507995605
1.0957179069519043,-5.822698593139648,-2.298433542251587,-1.359906554222107
1.0978703498840332,-5.928043365478516,-2.2697031497955322,-1.139639973640442
1.1001238822937012,-6.042964935302734,-2.3271639347076416,-0.7565677165985107
1.1012358665466309,-6.01423454284668,-2.3558945655822754,-0.9768342971801758
1.1034185886383057,-5.899312973022461,-2.1068975925445557,-1.5514427423477173
1.1055865287780762,-6.081272125244141,-2.0015525817871094,-1.9632453918457031
1.1077558994293213,-6.119579315185547,-2.1068975925445557,-1.944091796875
1.1099319458007812,-6.167463779449463,-2.1547815799713135,-1.8579005002975464
1.1121172904968262,-6.215347766876221,-2.1547815799713135,-1.7046716213226318
1.1132090091705322,-6.205770969390869,-2.1164743900299072,-2.3750481605529785
1.1153535842895508,-6.282385349273682,-2.078166961669922,-3.1316158771514893
1.117527723312378,-6.406883716583252,-2.0877439975738525,-3.1507694721221924
1.1196858882904053,-6.521805286407471,-2.1930887699127197,-2.786850690841675
1.1218488216400146,-6.531382083892822,-2.183511972427368,-2.892195701599121
1.122953176498413,-6.435614109039307,-2.1164743900299072,-3.1699230670928955
1.125131607055664,-6.291962146759033,-1.9728221893310547,-3.2752678394317627
1.127309799194336,-6.090848922729492,-1.9249382019042969,-3.0166940689086914
1.1294896602630615,-6.119579315185547,-2.1547815799713135,-2.557007312774658
1.1316678524017334,-6.0621185302734375,-2.212242364883423,-2.183511972427368
1.1327688694000244,-6.071695327758789,-2.231395959854126,-2.2888567447662354
1.1349685192108154,-6.042964935302734,-2.1547815799713135,-2.557007312774658
1.1371240615844727,-6.071695327758789,-2.183511972427368,-2.557007312774658
1.1392698287963867,-6.215347766876221,-2.298433542251587,-2.3558945655822754
1.1414415836334229,-6.291962146759033,-2.346317768096924,-2.1739351749420166
1.1425223350524902,-6.196194171905518,-2.279279947280884,-2.298433542251587
1.1446657180786133,-6.1770405769348145,-2.164358377456665,-2.518700122833252
1.1468276977539062,-6.052541732788086,-2.011129379272461,-2.4133553504943848
1.1490049362182617,-5.95677375793457,-1.9823989868164062,-2.126051187515259
1.1511781215667725,-6.0621185302734375,-1.9919757843017578,-1.9345149993896484
1.1522738933563232,-6.042964935302734,-1.9345149993896484,-1.8483237028121948
1.1544384956359863,-6.033388137817383,-1.867477297782898,-2.078166961669922
1.1596336364746094,-5.899312973022461,-1.7908629179000854,-2.126051187515259
1.1607236862182617,-5.966350555419922,-1.8100165128707886,-1.9728221893310547
1.161799430847168,-6.157886981964111,-1.867477297782898,-1.8579005002975464
1.1628789901733398,-6.196194171905518,-1.867477297782898,-1.9249382019042969
1.1639776229858398,-6.291962146759033,-1.8291701078414917,-2.2026655673980713
1.1661367416381836,-6.234501361846924,-1.7812861204147339,-2.38462495803833
1.1683006286621094,-6.1770405769348145,-1.800439715385437,-2.1164743900299072
1.1704776287078857,-6.196194171905518,-1.8483237028121948,-2.0207061767578125
1.1726593971252441,-6.253654956817627,-1.867477297782898,-2.126051187515259
1.1748380661010742,-6.406883716583252,-1.8291701078414917,-2.3271639347076416
1.1759438514709473,-6.378153324127197,-1.8195933103561401,-2.499546527862549
1.1781253814697266,-6.358999729156494,-1.7908629179000854,-2.38462495803833
1.1803078651428223,-6.3973069190979,-1.7908629179000854,-2.231395959854126
1.1824913024902344,-6.378153324127197,-1.742978811264038,-2.126051187515259
1.1835722923278809,-6.378153324127197,-1.7046716213226318,-2.2409727573394775
1.1857140064239502,-6.378153324127197,-1.6376339197158813,-2.3080103397369385
1.1878910064697266,-6.301538944244385,-1.6184803247451782,-2.1356279850006104
1.1900393962860107,-6.358999729156494,-1.5514427423477173,-1.9919757843017578
1.1921837329864502,-6.349422931671143,-1.436521053314209,-1.9728221893310547
1.1943557262420654,-6.426037311553955,-1.4269442558288574,-2.097320795059204
1.1954565048217773,-6.464344501495361,-1.3886369466781616,-2.1547815799713135
1.1976351737976074,-6.339846134185791,-1.3503297567367554,-2.0015525817871094
1.199812412261963,-6.368576526641846,-1.37906014919281,-1.8291701078414917
1.2019922733306885,-6.339846134185791,-1.3120225667953491,-1.8387469053268433
1.2041687965393066,-6.406883716583252,-1.3024457693099976,-1.8483237028121948
1.2052710056304932,-6.540958881378174,-1.3311761617660522,-2.097320795059204
1.2074217796325684,-6.521805286407471,-1.3407529592514038,-1.886630892753601
1.209594964981079,-6.531382083892822,-1.3407529592514038,-1.7621324062347412
1.211777687072754,-6.473921298980713,-1.3215993642807007,-1.7334020137786865
1.2139346599578857,-6.512228488922119,-1.292868971824646,-1.7525556087493896
1.2150347232818604,-6.560112476348877,-1.3120225667953491,-1.7046716213226318
1.217219591140747,-6.502651691436768,-1.2641384601593018,-1.5610195398330688
1.2194247245788574,-6.550535678863525,-1.2832920551300049,-1.4269442558288574
1.2216310501098633,-6.473921298980713,-1.1875240802764893,-1.4748282432556152
1.2238502502441406,-6.4834980964660645,-1.1779472827911377,-1.580173134803772
1.224961519241333,-6.540958881378174,-1.1204863786697388,-1.6280571222305298
1.2271475791931152,-6.560112476348877,-1.091755986213684,-1.6280571222305298
1.229341745376587,-6.627150535583496,-1.1013327836990356,-1.6280571222305298
1.2315022945404053,-6.627150535583496,-1.0534487962722778,-1.742978811264038
1.2325835227966309,-6.722918510437012,-0.9864110946655273,-1.944091796875
1.2347607612609863,-6.7708024978637695,-0.9672574996948242,-2.078166961669922
1.2369167804718018,-6.856993675231934,-1.0342950820922852,-2.049436569213867
1.239098072052002,-6.971915245056152,-1.0630255937576294,-2.011129379272461
1.2413480281829834,-6.952761650085449,-1.0534487962722778,-2.1739351749420166
1.24247407913208,-7.029376029968262,-1.0438719987869263,-2.2409727573394775
1.2446844577789307,-6.952761650085449,-1.0534487962722778,-2.0398597717285156
1.246903896331787,-6.971915245056152,-1.091755986213684,-1.7812861204147339
1.2491259574890137,-6.962338447570801,-1.0438719987869263,-1.599326729774475
1.2513234615325928,-7.029376029968262,-1.0534487962722778,-1.647210717201233
1.2524049282073975,-6.904877662658691,-0.9864110946655273,-1.6089035272598267
1.254546880722046,-6.866570472717285,-0.9385270476341248,-1.4652514457702637
1.256714105606079,-6.89530086517334,-0.9193734526634216,-1.4077905416488647
1.2588882446289062,-6.904877662658691,-0.9002198576927185,-1.4269442558288574
1.2599730491638184,-7.01979923248291,-0.8427590131759644,-1.4652514457702637
1.2621638774871826,-7.000645637512207,-0.8140285611152649,-1.455674648284912
1.264350414276123,-7.010222434997559,-0.8427590131759644,-1.4269442558288574
1.266533613204956,-7.038952827453613,-0.7661445140838623,-1.4269442558288574
1.2687244415283203,-7.086836814880371,-0.7757213711738586,-1.455674648284912
1.2709319591522217,-7.201758861541748,-0.7374141216278076,-1.5610195398330688
1.2720348834991455,-7.15387487411499,-0.7661445140838623,-1.5705963373184204
1.2742040157318115,-7.15387487411499,-0.727837324142456,-1.4652514457702637
1.2763476371765137,-7.1251444816589355,-0.7565677165985107,-1.455674648284912
1.2785019874572754,-7.201758861541748,-0.7374141216278076,-1.4748282432556152
1.279632329940796,-7.220912456512451,-0.7565677165985107,-1.4269442558288574
1.2818100452423096,-7.15387487411499,-0.727837324142456,-1.3694833517074585
1.2840073108673096,-7.173028469085693,-0.7469909191131592,-1.235408067703247
1.286224365234375,-7.201758861541748,-0.7182605266571045,-1.2737152576446533
1.2884743213653564,-7.259219646453857,-0.7086837291717529,-1.3503297567367554
1.2895853519439697,-7.230489253997803,-0.689530074596405,-1.216254472732544
1.291764736175537,-7.307103633880615,-0.7086837291717529,-1.1683704853057861
1.2939412593841553,-7.259219646453857,-0.7661445140838623,-1.1971008777618408
1.296125888824463,-7.3454108238220215,-0.7374141216278076,-1.3024457693099976
1.298295021057129,-7.4316020011901855,-0.7182605266571045,-1.3694833517074585
1.2993807792663574,-7.536946773529053,-0.7374141216278076,-1.4173674583435059
1.3015284538269043,-7.623138427734375,-0.7565677165985107,-1.4460978507995605
1.3036777973175049,-7.709329605102539,-0.8140285611152649,-1.4748282432556152
1.3058297634124756,-7.718906402587891,-0.7948749661445618,-1.436521053314209
1.3080084323883057,-7.728483200073242,-0.7948749661445618,-1.4173674583435059
1.3091142177581787,-7.690176010131836,-0.9002198576927185,-1.3886369466781616
1.311293363571167,-7.718906402587891,-0.9576807022094727,-1.3503297567367554
1.3134722709655762,-7.785943984985352,-0.9385270476341248,-1.1875240802764893
1.3156492710113525,-7.766790390014648,-0.9481038451194763,-1.1875240802764893
1.3179147243499756,-7.6997528076171875,-0.9002198576927185,-1.0821791887283325
1.319033145904541,-7.6997528076171875,-0.9385270476341248,-0.9959878921508789
1.3212127685546875,-7.709329605102539,-1.0342950820922852,-0.7757213711738586
1.3233768939971924,-7.785943984985352,-1.091755986213684,-0.8331822156906128
1.3255302906036377,-7.872135162353516,-1.091755986213684,-0.9959878921508789
1.327674388885498,-7.967903137207031,-1.1779472827911377,-1.0630255937576294
1.328752040863037,-8.063671112060547,-1.1204863786697388,-1.0630255937576294
1.3309385776519775,-8.101978302001953,-1.1971008777618408,-1.091755986213684
1.3331212997436523,-8.111555099487305,-1.2449848651885986,-1.139639973640442
1.3352999687194824,-8.130708694458008,-1.2449848651885986,-1.0247182846069336
1.3374760150909424,-8.178592681884766,-1.2832920551300049,-0.9864110946655273
1.3385961055755615,-8.255207061767578,-1.292868971824646,-1.0055646896362305
1.340775728225708,-8.216899871826172,-1.3215993642807007,-0.9576807022094727
1.342970609664917,-8.283937454223633,-1.3120225667953491,-0.8619126081466675
1.345125675201416,-8.236053466796875,-1.2641384601593018,-0.727837324142456
1.3472676277160645,-8.226476669311523,-1.359906554222107,-0.7661445140838623
1.3483457565307617,-8.26478385925293,-1.37906014919281,-0.6129156351089478
1.3504881858825684,-8.341399192810059,-1.455674648284912,-0.5937620401382446
1.3526272773742676,-8.35097599029541,-1.50355863571167,-0.5363011956214905
1.3548145294189453,-8.504204750061035,-1.5322890281677246,-0.5650315880775452
1.3569972515106201,-8.542511940002441,-1.580173134803772,-0.6033388376235962
1.3580939769744873,-8.5903959274292,-1.5418659448623657,-0.5554547905921936
1.3602845668792725,-8.580819129943848,-1.647210717201233,-0.6224924325942993
1.3624606132507324,-8.609549522399902,-1.7142484188079834,-0.507570743560791
1.364630937576294,-8.638279914855957,-1.7142484188079834,-0.4596867263317108
1.3667991161346436,-8.667010307312012,-1.742978811264038,-0.40222588181495667
1.3678812980651855,-8.695740699768066,-1.8483237028121948,-0.4884171485900879
1.3700199127197266,-8.762778282165527,-1.8483237028121948,-0.4118026793003082
1.372157096862793,-8.801085472106934,-1.8483237028121948,-0.2968810200691223
1.3742914199829102,-8.810662269592285,-1.9345149993896484,-0.24899697303771973
1.3764441013336182,-8.83939266204834,-2.011129379272461,-0.3734954595565796
1.3786132335662842,-8.954314231872559,-2.0398597717285156,-0.4213795065879822
1.379725456237793,-9.02135181427002,-2.097320795059204,-0.3447650372982025
1.381890058517456,-9.059659004211426,-2.183511972427368,-0.35434186458587646
1.3840553760528564,-9.02135181427002,-2.2409727573394775,-0.3447650372982025
1.3862190246582031,-9.107542991638184,-2.279279947280884,-0.17238251864910126
1.3883817195892334,-9.040505409240723,-2.3558945655822754,-0.1149216815829277
1.3894731998443604,-9.078812599182129,-2.3750481605529785,-0.2585737705230713
1.3916141986846924,-9.184157371520996,-2.4420857429504395,-0.23942017555236816
1.3937492370605469,-9.232041358947754,-2.451662540435791,-0.05746084079146385
1.395895004272461,-9.174580574035645,-2.5761611461639404,-0.047884032130241394
1.3980317115783691,-9.2033109664917,-2.5665841102600098,-0.10534487664699554
1.4001843929290771,-9.241618156433105,-2.6240451335906982,-0.047884032130241394
1.4012806415557861,-9.327810287475586,-2.7102363109588623,-0.028730420395731926
1.4034485816955566,-9.404424667358398,-2.786850690841675,-0.1149216815829277
1.405616283416748,-9.47146224975586,-2.8347349166870117,-0.13407529890537262
1.4077825546264648,-9.567230224609375,-2.8347349166870117,-0.019153613597154617
1.4099478721618652,-9.557653427124023,-2.8826189041137695,-0.047884032130241394
1.4121160507202148,-9.548076629638672,-2.920926094055176,-0.028730420395731926
1.413210391998291,-9.615114212036133,-2.911349296569824,0.028730420395731926
1.4153506755828857,-9.586383819580078,-2.9688100814819336,0.17238251864910126
1.417487621307373,-9.576807022094727,-2.9879636764526367,0.13407529890537262
1.4196739196777344,-9.557653427124023,-3.0550012588500977,0.2298433631658554
1.4207663536071777,-9.59596061706543,-3.00711727142334,0.363918662071228
1.4229588508605957,-9.66299819946289,-3.093308687210083,0.2968810200691223
1.4251689910888672,-9.758766174316406,-3.1316158771514893,0.17238251864910126
1.4273805618286133,-9.825803756713867,-3.160346269607544,0.14365209639072418
1.4295835494995117,-9.864110946655273,-3.2369606494903564,0.20111294090747833
1.4317846298217773,-9.84495735168457,-3.3518824577331543,0.14365209639072418
1.4328925609588623,-9.883264541625977,-3.361459255218506,0.22026655077934265
1.435070514678955,-9.883264541625977,-3.361459255218506,0.31603461503982544
1.4372518062591553,-9.873687744140625,-3.4093432426452637,0.3256114423274994
1.4394104480743408,-9.892841339111328,-3.3901896476745605,0.3256114423274994
1.440492868423462,-9.873687744140625,-3.361459255218506,0.38307225704193115
1.442650556564331,-9.854534149169922,-3.3901896476745605,0.4884171485900879
1.444791555404663,-9.816226959228516,-3.44765043258667,0.45010992884635925
1.4469425678253174,-9.854534149169922,-3.428496837615967,0.5841852426528931
1.449181318283081,-9.911994934082031,-3.5051112174987793,0.4884171485900879
1.4502959251403809,-10.017339706420898,-3.5721490383148193,0.33518823981285095
1.4524891376495361,-10.055646896362305,-3.5913026332855225,0.2777273952960968
1.4546794891357422,-10.103530883789062,-3.5913026332855225,0.35434186458587646
1.456895112991333,-10.046070098876953,-3.6104562282562256,0.4596867263317108
1.4591012001037598,-10.02691650390625,-3.648763418197632,0.4405331015586853
1.460198163986206,-9.998186111450195,-3.687070608139038,0.47884035110473633
1.4623620510101318,-9.96945571899414,-3.648763418197632,0.38307225704193115
1.4645037651062012,-9.921571731567383,-3.6391866207122803,0.45010992884635925
1.4666388034820557,-9.835380554199219,-3.6583402156829834,0.6224924325942993
1.4687719345092773,-9.90241813659668,-3.667917013168335,0.545877993106842
1.469878911972046,-9.892841339111328,-3.6583402156829834,0.4884171485900879
1.4720561504364014,-9.988609313964844,-3.667917013168335,0.33518823981285095
1.4742228984832764,-10.08437728881836,-3.7253777980804443,0.26815059781074524
1.4763920307159424,-10.103530883789062,-3.7253777980804443,0.2968810200691223
1.4785664081573486,-10.017339706420898,-3.7158010005950928,0.33518823981285095
1.4796650409698486,-9.988609313964844,-3.7445313930511475,0.2968810200691223
1.4818336963653564,-10.007762908935547,-3.734954595565796,0.3926490843296051
1.4839997291564941,-9.950302124023438,-3.7445313930511475,0.2777273952960968
1.486142635345459,-9.959878921508789,-3.687070608139038,0.4118026793003082
1.4882824420928955,-9.911994934082031,-3.6104562282562256,0.40222588181495667
1.4904170036315918,-9.825803756713867,-3.648763418197632,0.45010992884635925
1.4914922714233398,-9.806650161743164,-3.6296098232269287,0.45010992884635925
1.4936282634735107,-9.84495735168457,-3.5913026332855225,0.363918662071228
1.495809555053711,-9.921571731567383,-3.687070608139038,0.2298433631658554
1.4979782104492188,-9.979032516479492,-3.6774938106536865,0.3256114423274994
1.5001466274261475,-10.017339706420898,-3.6774938106536865,0.2106897532939911
1.5012407302856445,-9.979032516479492,-3.667917013168335,0.33518823981285095
1.5034143924713135,-9.931148529052734,-3.6583402156829834,0.3256114423274994
1.5055828094482422,-9.959878921508789,-3.6391866207122803,0.38307225704193115
1.5077214241027832,-9.854534149169922,-3.600879430770874,0.45010992884635925
1.509855031967163,-9.768342971801758,-3.5721490383148193,0.5554547905921936
1.5109367370605469,-9.701305389404297,-3.5242648124694824,0.689530074596405
1.513075351715088,-9.624691009521484,-3.428496837615967,0.6991068720817566
1.5152106285095215,-9.739612579345703,-3.44765043258667,0.5363011956214905
1.5173923969268799,-9.787496566772461,-3.4189200401306152,0.5267243981361389
1.5195667743682861,-9.873687744140625,-3.4572272300720215,0.33518823981285095
1.5217323303222656,-9.873687744140625,-3.485957622528076,0.3447650372982025
1.522848129272461,-9.787496566772461,-3.4763808250427246,0.43095630407333374
1.5250303745269775,-9.835380554199219,-3.44765043258667,0.43095630407333374
1.5272023677825928,-9.758766174316406,-3.4380736351013184,0.507570743560791
1.529372215270996,-9.701305389404297,-3.3423056602478027,0.507570743560791
1.531529188156128,-9.691728591918945,-3.3039982318878174,0.43095630407333374
1.5326051712036133,-9.605537414550781,-3.2369606494903564,0.6416460275650024
1.5347414016723633,-9.509769439697266,-3.1890766620635986,0.5267243981361389
1.5368754863739014,-9.528923034667969,-3.141192674636841,0.4405331015586853
1.5390105247497559,-9.605537414550781,-3.160346269607544,0.3734954595565796
1.5411741733551025,-9.691728591918945,-3.2082302570343018,0.2585737705230713
1.543351411819458,-9.720458984375,-3.2848446369171143,0.3064578175544739
1.5444481372833252,-9.672574996948242,-3.2178070545196533,0.2968810200691223
1.5466156005859375,-9.701305389404297,-3.179499864578247,0.2777273952960968
1.5488135814666748,-9.59596061706543,-3.141192674636841,0.33518823981285095
1.55098557472229,-9.548076629638672,-3.0837318897247314,0.3256114423274994
1.5531535148620605,-9.47146224975586,-3.045424461364746,0.35434186458587646
1.554229497909546,-9.35654067993164,-2.959233283996582,0.4884171485900879
1.5563747882843018,-9.299078941345215,-2.892195701599121,0.4692635238170624
1.5585243701934814,-9.260771751403809,-2.853888511657715,0.3926490843296051
1.5606701374053955,-9.394847869873047,-2.873042106628418,0.2777273952960968
1.5628471374511719,-9.519346237182617,-2.8826189041137695,0.23942017555236816
1.563969373703003,-9.519346237182617,-2.9017724990844727,0.14365209639072418
1.566161870956421,-9.528923034667969,-2.911349296569824,0.07661445438861847
1.568359136581421,-9.433155059814453,-2.873042106628418,0.17238251864910126
1.5705435276031494,-9.404424667358398,-2.853888511657715,0.28730419278144836
1.572713851928711,-9.385271072387695,-2.8443117141723633,0.2298433631658554
1.573812484741211,-9.308655738830566,-2.7964274883270264,0.3447650372982025
1.576139211654663,-9.289502143859863,-2.719813108444214,0.3734954595565796
1.5783212184906006,-9.117119789123535,-2.671929121017456,0.40222588181495667
1.5804812908172607,-9.059659004211426,-2.5953147411346436,0.43095630407333374
1.5815837383270264,-9.165003776550293,-2.6431987285614014,0.4118026793003082
1.5837583541870117,-9.27034854888916,-2.6431987285614014,0.24899697303771973
1.585951328277588,-9.394847869873047,-2.7102363109588623,0.17238251864910126
1.5881869792938232,-9.375694274902344,-2.7006595134735107,0.20111294090747833
1.589390754699707,-9.35654067993164,-2.6815059185028076,0.2298433631658554
1.5915944576263428,-9.318233489990234,-2.652775526046753,0.1628057211637497
1.5937697887420654,-9.289502143859863,-2.5953147411346436,0.17238251864910126
1.5959513187408447,-9.241618156433105,-2.5665841102600098,0.2585737705230713
1.5981192588806152,-9.155426979064941,-2.499546527862549,0.3256114423274994
1.599327802658081,-9.08838939666748,-2.3942017555236816,0.49799394607543945
1.6014795303344727,-9.011775016784668,-2.346317768096924,0.5554547905921936
1.6036338806152344,-9.040505409240723,-2.3558945655822754,0.49799394607543945
1.6057970523834229,-9.14585018157959,-2.3750481605529785,0.3734954595565796
1.6079468727111816,-9.279925346374512,-2.4133553504943848,0.26815059781074524
1.6090481281280518,-9.337387084960938,-2.4229321479797363,0.2298433631658554
1.6112418174743652,-9.308655738830566,-2.4133553504943848,0.24899697303771973
1.6134486198425293,-9.222464561462402,-2.3942017555236816,0.3256114423274994
1.6145963668823242,-9.193734169006348,-2.3558945655822754,0.38307225704193115
1.617879867553711,-9.165003776550293,-2.346317768096924,0.3256114423274994
1.618990421295166,-9.126696586608887,-2.250549554824829,0.4118026793003082
1.621178388595581,-9.059659004211426,-2.164358377456665,0.5841852426528931
1.6233439445495605,-8.925583839416504,-2.1356279850006104,0.47884035110473633
1.6255121231079102,-8.96389102935791,-2.078166961669922,0.363918662071228
1.6265923976898193,-9.08838939666748,-2.1356279850006104,0.28730419278144836
1.6287479400634766,-9.193734169006348,-2.1739351749420166,0.2585737705230713
1.630890130996704,-9.232041358947754,-2.2601263523101807,0.12449848651885986
1.6330773830413818,-9.27034854888916,-2.231395959854126,0.12449848651885986
1.6352510452270508,-9.193734169006348,-2.1930887699127197,0.33518823981285095
1.6374294757843018,-9.117119789123535,-2.164358377456665,0.33518823981285095
1.6385223865509033,-9.030928611755371,-2.0877439975738525,0.35434186458587646
1.640695571899414,-9.050082206726074,-2.0877439975738525,0.4213795065879822
1.642871379852295,-9.02135181427002,-2.011129379272461,0.40222588181495667
1.6450374126434326,-8.916007041931152,-1.9536685943603516,0.33518823981285095
1.6488807201385498,-8.868123054504395,-1.9057846069335938,0.43095630407333374
1.6499640941619873,-8.916007041931152,-1.9536685943603516,0.5650315880775452
1.6510417461395264,-9.011775016784668,-2.0398597717285156,0.43095630407333374
1.652116298675537,-9.050082206726074,-2.078166961669922,0.3447650372982025
1.6542532444000244,-9.165003776550293,-2.011129379272461,0.31603461503982544
1.656433343887329,-9.126696586608887,-2.049436569213867,0.22026655077934265
1.6586039066314697,-9.050082206726074,-2.011129379272461,0.20111294090747833
1.6607742309570312,-9.040505409240723,-1.9919757843017578,0.28730419278144836
1.6629493236541748,-8.973467826843262,-1.944091796875,0.4213795065879822
1.6640467643737793,-8.973467826843262,-1.9153614044189453,0.2585737705230713
1.6662111282348633,-8.96389102935791,-1.8962076902389526,0.26815059781074524
1.668386697769165,-8.916007041931152,-1.8483237028121948,0.4118026793003082
1.6705412864685059,-8.829815864562988,-1.8483237028121948,0.5267243981361389
1.672677993774414,-8.78193187713623,-1.8483237028121948,0.5171475410461426
1.673750877380371,-8.868123054504395,-1.8770540952682495,0.45010992884635925
1.6758885383605957,-8.925583839416504,-1.9153614044189453,0.3926490843296051
1.6780238151550293,-9.002198219299316,-1.9153614044189453,0.19153612852096558
1.680204153060913,-8.992621421813965,-1.9536685943603516,0.26815059781074524
1.6823735237121582,-8.983044624328613,-1.8962076902389526,0.40222588181495667
1.6835236549377441,-8.916007041931152,-1.8483237028121948,0.4405331015586853
1.6857659816741943,-8.820239067077637,-1.8387469053268433,0.3926490843296051
1.6879565715789795,-8.877699851989746,-1.8195933103561401,0.3256114423274994
1.6901285648345947,-8.848969459533691,-1.7812861204147339,0.3734954595565796
1.6922986507415771,-8.78193187713623,-1.7908629179000854,0.3447650372982025
1.6933767795562744,-8.743624687194824,-1.7812861204147339,0.3926490843296051
1.6955158710479736,-8.705317497253418,-1.723825216293335,0.5267243981361389
1.6976540088653564,-8.734047889709473,-1.7812861204147339,0.4692635238170624
1.699798345565796,-8.734047889709473,-1.8387469053268433,0.3064578175544739
1.7020163536071777,-8.801085472106934,-1.8483237028121948,0.31603461503982544
1.7031404972076416,-8.83939266204834,-1.8291701078414917,0.35434186458587646
1.7053279876708984,-8.829815864562988,-1.7908629179000854,0.1628057211637497
1.7075090408325195,-8.753201484680176,-1.7717092037200928,0.181959331035614
1.709700107574463,-8.743624687194824,-1.7334020137786865,0.31603461503982544
1.7119128704071045,-8.734047889709473,-1.8100165128707886,0.40222588181495667
1.713019847869873,-8.695740699768066,-1.800439715385437,0.3064578175544739
1.7152223587036133,-8.638279914855957,-1.7717092037200928,0.33518823981285095
1.7173714637756348,-8.619126319885254,-1.742978811264038,0.5171475410461426
1.7195265293121338,-8.523358345031738,-1.742978811264038,0.47884035110473633
1.7217090129852295,-8.513781547546387,-1.742978811264038,0.4213795065879822
1.722794771194458,-8.59997272491455,-1.7621324062347412,0.4118026793003082
1.7249696254730225,-8.667010307312012,-1.723825216293335,0.2968810200691223
1.7271709442138672,-8.676587104797363,-1.7621324062347412,0.13407529890537262
1.7294063568115234,-8.705317497253418,-1.7621324062347412,0.1149216815829277
1.7305200099945068,-8.686163902282715,-1.7717092037200928,0.23942017555236816
1.7327344417572021,-8.571242332458496,-1.742978811264038,0.3256114423274994
1.734915018081665,-8.456320762634277,-1.7525556087493896,0.3734954595565796
1.7370858192443848,-8.465897560119629,-1.742978811264038,0.3447650372982025
1.7392652034759521,-8.494627952575684,-1.7142484188079834,0.38307225704193115
1.740349531173706,-8.398859977722168,-1.656787633895874,0.3447650372982025
1.7424876689910889,-8.360552787780762,-1.6663644313812256,0.3447650372982025
1.7446224689483643,-8.379706382751465,-1.6663644313812256,0.43095630407333374
1.746757984161377,-8.40843677520752,-1.6376339197158813,0.4213795065879822
1.7489211559295654,-8.40843677520752,-1.6950948238372803,0.20111294090747833
1.7511706352233887,-8.47547435760498,-1.723825216293335,0.19153612852096558
1.7522797584533691,-8.47547435760498,-1.7142484188079834,0.2585737705230713
1.7544536590576172,-8.389283180236816,-1.7142484188079834,0.3064578175544739
1.7566518783569336,-8.303091049194336,-1.656787633895874,0.3064578175544739
1.7588250637054443,-8.312667846679688,-1.656787633895874,0.3256114423274994
1.7609946727752686,-8.245630264282227,-1.6376339197158813,0.4405331015586853
1.762089490890503,-8.216899871826172,-1.580173134803772,0.33518823981285095
1.7642326354980469,-8.197746276855469,-1.5897499322891235,0.3256114423274994
1.7663674354553223,-8.216899871826172,-1.5705963373184204,0.35434186458587646
1.7685019969940186,-8.14028549194336,-1.5514427423477173,0.4118026793003082
1.7706422805786133,-8.111555099487305,-1.580173134803772,0.3256114423274994
1.7717499732971191,-8.130708694458008,-1.6376339197158813,0.2968810200691223
1.7739241123199463,-8.188169479370117,-1.647210717201233,0.3064578175544739
1.7760989665985107,-8.197746276855469,-1.6855180263519287,0.23942017555236816
1.7782671451568604,-8.197746276855469,-1.647210717201233,0.10534487664699554
1.7804386615753174,-8.178592681884766,-1.647210717201233,0.181959331035614
1.782606601715088,-8.178592681884766,-1.6089035272598267,0.20111294090747833
1.7837014198303223,-8.121131896972656,-1.6759412288665771,0.181959331035614
1.7858707904815674,-8.02536392211914,-1.6184803247451782,0.26815059781074524
1.788015604019165,-8.044517517089844,-1.6376339197158813,0.35434186458587646
1.7901530265808105,-7.939172744750977,-1.5897499322891235,0.3734954595565796
1.7922916412353516,-7.977479934692383,-1.647210717201233,0.2585737705230713
1.7933638095855713,-8.054094314575195,-1.6376339197158813,0.20111294090747833
1.7955012321472168,-8.073247909545898,-1.6759412288665771,0.2777273952960968
1.7976861000061035,-8.006210327148438,-1.656787633895874,0.33518823981285095
1.7998573780059814,-7.996633529663086,-1.6855180263519287,0.24899697303771973
1.8020257949829102,-8.054094314575195,-1.7046716213226318,0.20111294090747833
1.8031399250030518,-8.044517517089844,-1.6663644313812256,0.2298433631658554
1.805316686630249,-8.073247909545898,-1.656787633895874,0.26815059781074524
1.8074896335601807,-8.034940719604492,-1.6759412288665771,0.24899697303771973
1.8096435070037842,-7.920019149780273,-1.656787633895874,0.3064578175544739
1.8117802143096924,-7.939172744750977,-1.599326729774475,0.3734954595565796
1.8128535747528076,-7.910442352294922,-1.6376339197158813,0.33518823981285095
1.8149871826171875,-7.987056732177734,-1.7046716213226318,0.2585737705230713
1.8171203136444092,-7.996633529663086,-1.7046716213226318,0.33518823981285095
1.819298267364502,-7.967903137207031,-1.6759412288665771,0.38307225704193115
1.821469783782959,-7.929595947265625,-1.7046716213226318,0.45010992884635925
1.823638916015625,-7.891288757324219,-1.7046716213226318,0.45010992884635925
1.8247346878051758,-7.891288757324219,-1.6855180263519287,0.5746083855628967
1.8269121646881104,-7.929595947265625,-1.7142484188079834,0.4884171485900879
1.829087495803833,-7.967903137207031,-1.7046716213226318,0.4118026793003082
1.8312571048736572,-7.987056732177734,-1.6855180263519287,0.363918662071228
1.8334171772003174,-7.95832633972168,-1.6759412288665771,0.45010992884635925
1.8344922065734863,-7.910442352294922,-1.6376339197158813,0.5267243981361389
1.8366374969482422,-7.929595947265625,-1.7046716213226318,0.507570743560791
1.8387739658355713,-7.920019149780273,-1.7334020137786865,0.47884035110473633
1.8409209251403809,-7.95832633972168,-1.7525556087493896,0.5267243981361389
1.8430976867675781,-7.872135162353516,-1.7621324062347412,0.6224924325942993
1.8442015647888184,-7.843404769897461,-1.723825216293335,0.5554547905921936
1.8463714122772217,-7.881711959838867,-1.742978811264038,0.5267243981361389
1.8485424518585205,-7.891288757324219,-1.7621324062347412,0.5171475410461426
1.8507094383239746,-7.939172744750977,-1.7621324062347412,0.5746083855628967
1.8528783321380615,-7.910442352294922,-1.8770540952682495,0.45010992884635925
1.8550434112548828,-7.920019149780273,-1.8770540952682495,0.47884035110473633
1.8561193943023682,-7.948749542236328,-1.9153614044189453,0.40222588181495667
1.85825777053833,-8.02536392211914,-1.9249382019042969,0.5363011956214905
1.8604185581207275,-7.967903137207031,-1.9345149993896484,0.4884171485900879
1.862567663192749,-8.006210327148438,-1.9249382019042969,0.4692635238170624
1.8647453784942627,-7.920019149780273,-1.9728221893310547,0.545877993106842
1.8658573627471924,-7.920019149780273,-1.9632453918457031,0.6320692300796509
1.8680570125579834,-7.920019149780273,-1.9823989868164062,0.49799394607543945
1.8702569007873535,-7.95832633972168,-1.9728221893310547,0.507570743560791
1.8724708557128906,-7.996633529663086,-1.9728221893310547,0.4884171485900879
1.8746938705444336,-7.967903137207031,-2.030282974243164,0.6512228846549988
1.87581467628479,-7.948749542236328,-2.0015525817871094,0.6129156351089478
1.8780407905578613,-7.977479934692383,-2.030282974243164,0.7374141216278076
1.880206823348999,-7.996633529663086,-2.097320795059204,0.7086837291717529
1.8823533058166504,-8.02536392211914,-2.0877439975738525,0.6129156351089478
1.8834559917449951,-8.101978302001953,-2.0877439975738525,0.5171475410461426
1.885603666305542,-8.111555099487305,-2.049436569213867,0.5267243981361389
1.8877322673797607,-8.111555099487305,-2.097320795059204,0.5937620401382446
1.8899459838867188,-8.121131896972656,-2.126051187515259,0.6320692300796509
1.8921680450439453,-8.063671112060547,-2.145204782485962,0.6416460275650024
1.893277645111084,-8.111555099487305,-2.2218191623687744,0.7661445140838623
1.8954696655273438,-8.111555099487305,-2.164358377456665,0.8810662031173706
1.897651195526123,-8.08282470703125,-2.2218191623687744,0.8619126081466675
1.8998346328735352,-8.063671112060547,-2.183511972427368,0.8906430602073669
1.9020121097564697,-8.111555099487305,-2.1930887699127197,0.9672574996948242
1.9030954837799072,-8.08282470703125,-2.145204782485962,0.9672574996948242
1.9052507877349854,-8.149862289428711,-2.2218191623687744,0.8810662031173706
1.9074289798736572,-8.197746276855469,-2.231395959854126,0.8140285611152649
1.9095990657806396,-8.245630264282227,-2.2888567447662354,0.8331822156906128
1.9118330478668213,-8.216899871826172,-2.2888567447662354,0.8810662031173706
1.9140732288360596,-8.159439086914062,-2.2409727573394775,0.9576807022094727
1.9151909351348877,-8.178592681884766,-2.2409727573394775,1.0055646896362305
1.9173762798309326,-8.178592681884766,-2.231395959854126,1.015141487121582
1.9195895195007324,-8.159439086914062,-2.279279947280884,1.0055646896362305
1.9217910766601562,-8.178592681884766,-2.2888567447662354,0.9481038451194763
1.9228951930999756,-8.197746276855469,-2.279279947280884,0.9959878921508789
1.9250595569610596,-8.188169479370117,-2.250549554824829,0.9576807022094727
1.9272234439849854,-8.20732307434082,-2.3367409706115723,0.9864110946655273
1.929405927658081,-8.293514251708984,-2.3750481605529785,0.9768342971801758
1.9304912090301514,-8.322244644165039,-2.4133553504943848,0.9959878921508789
1.9326362609863281,-8.293514251708984,-2.4420857429504395,1.015141487121582
1.9348297119140625,-8.245630264282227,-2.451662540435791,0.9768342971801758
1.937007188796997,-8.322244644165039,-2.4420857429504395,0.8523358106613159
1.9392056465148926,-8.370129585266113,-2.4133553504943848,0.8523358106613159
1.9413859844207764,-8.341399192810059,-2.470816135406494,0.8044517636299133
1.942488193511963,-8.370129585266113,-2.451662540435791,0.727837324142456
1.9446775913238525,-8.379706382751465,-2.518700122833252,0.8810662031173706
1.9468748569488525,-8.322244644165039,-2.470816135406494,1.0247182846069336
1.9490420818328857,-8.322244644165039,-2.518700122833252,1.015141487121582
1.9501221179962158,-8.312667846679688,-2.4803929328918457,1.015141487121582
1.9522626399993896,-8.35097599029541,-2.5091233253479004,1.1013327836990356
1.954402208328247,-8.360552787780762,-2.470816135406494,1.1779472827911377
1.9565415382385254,-8.322244644165039,-2.4803929328918457,1.1109095811843872
1.9587292671203613,-8.35097599029541,-2.4612393379211426,1.1204863786697388
1.9598841667175293,-8.418013572692871,-2.451662540435791,1.1300631761550903
1.9620862007141113,-8.465897560119629,-2.451662540435791,1.1013327836990356
1.9642715454101562,-8.427590370178223,-2.499546527862549,1.1013327836990356
1.9664812088012695,-8.418013572692871,-2.5091233253479004,1.235408067703247
1.9686927795410156,-8.370129585266113,-2.4612393379211426,1.3024457693099976
1.9697997570037842,-8.370129585266113,-2.4899697303771973,1.2737152576446533
1.9719657897949219,-8.427590370178223,-2.499546527862549,1.2258312702178955
1.974109411239624,-8.47547435760498,-2.4899697303771973,1.292868971824646
1.976252794265747,-8.437167167663574,-2.4899697303771973,1.3311761617660522
1.9783916473388672,-8.379706382751465,-2.451662540435791,1.2737152576446533
1.9794766902923584,-8.379706382751465,-2.470816135406494,1.2449848651885986
1.9816679954528809,-8.456320762634277,-2.4420857429504395,1.2641384601593018
1.9838502407073975,-8.542511940002441,-2.4803929328918457,1.1971008777618408
1.9860315322875977,-8.513781547546387,-2.518700122833252,1.1683704853057861
1.9882128238677979,-8.619126319885254,-2.499546527862549,1.1971008777618408
1.9893677234649658,-8.5903959274292,-2.5091233253479004,1.2832920551300049
1.9915847778320312,-8.53293514251709,-2.499546527862549,1.1204863786697388
1.9937999248504639,-8.580819129943848,-2.4803929328918457,1.1492167711257935
1.9959819316864014,-8.638279914855957,-2.5091233253479004,1.1683704853057861
1.9970622062683105,-8.609549522399902,-2.4612393379211426,1.216254472732544
1.9992024898529053,-8.542511940002441,-2.451662540435791,1.2449848651885986
2.0013418197631836,-8.437167167663574,-2.470816135406494,1.359906554222107
2.0034942626953125,-8.485051155090332,-2.4612393379211426,1.4652514457702637
2.0056955814361572,-8.5903959274292,-2.451662540435791,1.3311761617660522
2.007882833480835,-8.628703117370605,-2.451662540435791,1.216254472732544
2.0089845657348633,-8.734047889709473,-2.5091233253479004,1.216254472732544
2.0111680030822754,-8.71489429473877,-2.4899697303771973,1.2832920551300049
2.0133495330810547,-8.676587104797363,-2.4803929328918457,1.1875240802764893
2.0155394077301025,-8.65743350982666,-2.5091233253479004,1.2449848651885986
2.01771879196167,-8.686163902282715,-2.4612393379211426,1.4077905416488647
2.0188021659851074,-8.628703117370605,-2.4612393379211426,1.3886369466781616
2.0209503173828125,-8.5903959274292,-2.4229321479797363,1.4173674583435059
2.023101806640625,-8.628703117370605,-2.3558945655822754,1.50355863571167
2.0252702236175537,-8.5903959274292,-2.3558945655822754,1.522712230682373
2.027475118637085,-8.523358345031738,-2.365471363067627,1.5418659448623657
2.0285823345184326,-8.5903959274292,-2.365471363067627,1.4460978507995605
2.0307652950286865,-8.705317497253418,-2.3558945655822754,1.522712230682373
2.0329582691192627,-8.743624687194824,-2.3942017555236816,1.37906014919281
2.0351450443267822,-8.705317497253418,-2.38462495803833,1.292868971824646
2.037337064743042,-8.762778282165527,-2.3750481605529785,1.3120225667953491
2.0384411811828613,-8.734047889709473,-2.365471363067627,1.4844050407409668
2.0406110286712646,-8.71489429473877,-2.298433542251587,1.4269442558288574
2.0427701473236084,-8.65743350982666,-2.346317768096924,1.3886369466781616
2.044910430908203,-8.705317497253418,-2.2409727573394775,1.3694833517074585
2.047086477279663,-8.667010307312012,-2.2218191623687744,1.4269442558288574
2.048170804977417,-8.609549522399902,-2.212242364883423,1.4269442558288574
2.0503294467926025,-8.628703117370605,-2.183511972427368,1.599326729774475
2.0525097846984863,-8.628703117370605,-2.212242364883423,1.6089035272598267
2.0546693801879883,-8.686163902282715,-2.231395959854126,1.4939818382263184
2.056878089904785,-8.772355079650879,-2.2218191623687744,1.3694833517074585
2.057994842529297,-8.83939266204834,-2.2218191623687744,1.3982137441635132
2.060185194015503,-8.810662269592285,-2.1930887699127197,1.50355863571167
2.0623855590820312,-8.724471092224121,-2.1739351749420166,1.436521053314209
2.064587354660034,-8.686163902282715,-2.145204782485962,1.522712230682373
2.0656793117523193,-8.695740699768066,-2.0877439975738525,1.656787633895874
2.06783127784729,-8.647856712341309,-2.097320795059204,1.6280571222305298
2.070007085800171,-8.609549522399902,-2.049436569213867,1.647210717201233
2.07216477394104,-8.686163902282715,-2.0398597717285156,1.7046716213226318
2.0743346214294434,-8.628703117370605,-2.0015525817871094,1.723825216293335
2.0765252113342285,-8.65743350982666,-2.011129379272461,1.6280571222305298
2.0776326656341553,-8.695740699768066,-2.0685901641845703,1.6089035272598267
2.079817771911621,-8.762778282165527,-2.097320795059204,1.6759412288665771
2.082057476043701,-8.801085472106934,-2.097320795059204,1.580173134803772
2.084305763244629,-8.791508674621582,-2.0685901641845703,1.5514427423477173
2.085416316986084,-8.791508674621582,-2.0398597717285156,1.656787633895874
2.0875821113586426,-8.734047889709473,-1.9919757843017578,1.7621324062347412
2.0897247791290283,-8.676587104797363,-2.0015525817871094,1.6184803247451782
2.091919183731079,-8.724471092224121,-2.011129379272461,1.6280571222305298
2.0941081047058105,-8.743624687194824,-1.9823989868164062,1.7142484188079834
2.09519624710083,-8.734047889709473,-1.9632453918457031,1.580173134803772
2.097346782684326,-8.676587104797363,-1.9919757843017578,1.5610195398330688
2.09954571723938,-8.743624687194824,-2.0015525817871094,1.7334020137786865
2.1017682552337646,-8.762778282165527,-2.0207061767578125,1.8579005002975464
2.1039888858795166,-8.734047889709473,-2.0207061767578125,1.6184803247451782
2.10509991645813,-8.820239067077637,-1.9919757843017578,1.6089035272598267
2.107292413711548,-8.868123054504395,-1.9632453918457031,1.6280571222305298
2.1094841957092285,-8.83939266204834,-1.9728221893310547,1.599326729774475
2.111639976501465,-8.762778282165527,-1.9345149993896484,1.5897499322891235
2.112739324569702,-8.791508674621582,-1.9249382019042969,1.7142484188079834
2.1148884296417236,-8.791508674621582,-1.9249382019042969,1.7908629179000854
2.1170265674591064,-8.753201484680176,-1.9249382019042969,1.7621324062347412
2.1191658973693848,-8.695740699768066,-1.944091796875,1.8100165128707886
2.1213502883911133,-8.734047889709473,-1.9057846069335938,2.0398597717285156
2.1235949993133545,-8.71489429473877,-1.8579005002975464,1.9823989868164062
2.1247212886810303,-8.647856712341309,-1.8770540952682495,1.8770540952682495
2.1269333362579346,-8.734047889709473,-1.867477297782898,1.8770540952682495
2.1291370391845703,-8.772355079650879,-1.8483237028121948,1.944091796875
2.131335735321045,-8.801085472106934,-1.886630892753601,1.7142484188079834
2.133509397506714,-8.801085472106934,-1.8579005002975464,1.7334020137786865
2.134596109390259,-8.801085472106934,-1.8483237028121948,1.8770540952682495
2.140937328338623,-8.71489429473877,-1.8579005002975464,1.867477297782898
2.1420364379882812,-8.647856712341309,-1.8962076902389526,1.7717092037200928
2.1431479454040527,-8.743624687194824,-1.867477297782898,1.8100165128707886
2.1442272663116455,-8.820239067077637,-1.9153614044189453,1.800439715385437
2.145324945449829,-8.734047889709473,-1.9249382019042969,1.6280571222305298
2.1464288234710693,-8.705317497253418,-1.9153614044189453,1.647210717201233
2.1486170291900635,-8.705317497253418,-1.8962076902389526,1.8770540952682495
2.150803327560425,-8.705317497253418,-1.9153614044189453,1.8291701078414917
2.1529977321624756,-8.686163902282715,-1.9728221893310547,1.6855180263519287
2.1543726921081543,-8.868123054504395,-1.9345149993896484,1.6089035272598267
2.1565659046173096,-8.96389102935791,-2.0015525817871094,1.6376339197158813
2.158719539642334,-8.868123054504395,-2.011129379272461,1.5131354331970215
2.159799098968506,-8.877699851989746,-2.030282974243164,1.5418659448623657
2.1620032787323,-8.810662269592285,-1.9728221893310547,1.6855180263519287
2.1641643047332764,-8.772355079650879,-1.9536685943603516,1.7525556087493896
2.1663506031036377,-8.724471092224121,-1.9345149993896484,1.742978811264038
2.168546438217163,-8.686163902282715,-1.944091796875,1.9249382019042969
2.169654369354248,-8.667010307312012,-1.8770540952682495,2.049436569213867
2.1718356609344482,-8.552088737487793,-1.886630892753601,2.0590133666992188
2.1740143299102783,-8.638279914855957,-1.8962076902389526,2.011129379272461
2.1762189865112305,-8.743624687194824,-1.944091796875,2.011129379272461
2.1784300804138184,-8.820239067077637,-1.9632453918457031,1.8100165128707886
2.179539442062378,-8.9064302444458,-1.9919757843017578,1.7812861204147339
2.181683301925659,-8.868123054504395,-2.030282974243164,1.9057846069335938
2.183832883834839,-8.791508674621582,-2.049436569213867,2.0015525817871094
2.1860361099243164,-8.753201484680176,-2.030282974243164,2.0207061767578125
2.1881844997406006,-8.772355079650879,-1.9728221893310547,1.9823989868164062
2.1892638206481934,-8.78193187713623,-2.0015525817871094,2.078166961669922
2.1914279460906982,-8.686163902282715,-1.9632453918457031,2.049436569213867
2.193631410598755,-8.65743350982666,-1.9536685943603516,2.126051187515259
2.1958703994750977,-8.638279914855957,-1.944091796875,2.231395959854126
2.1980881690979004,-8.647856712341309,-1.9919757843017578,2.078166961669922
2.1992034912109375,-8.791508674621582,-2.0590133666992188,1.9249382019042969
2.2013778686523438,-8.925583839416504,-2.1164743900299072,1.8962076902389526
2.2035484313964844,-8.96389102935791,-2.164358377456665,1.8770540952682495
2.205693244934082,-8.9064302444458,-2.1356279850006104,1.7908629179000854
2.2078311443328857,-8.810662269592285,-2.1356279850006104,1.8387469053268433
2.2089147567749023,-8.820239067077637,-2.145204782485962,1.9919757843017578
2.21105694770813,-8.734047889709473,-2.126051187515259,1.9632453918457031
2.2132279872894287,-8.724471092224121,-2.049436569213867,1.9919757843017578
2.2154147624969482,-8.65743350982666,-2.0398597717285156,2.078166961669922
2.217590093612671,-8.647856712341309,-2.011129379272461,2.1068975925445557
2.218672752380371,-8.5903959274292,-2.049436569213867,2.0590133666992188
2.2208831310272217,-8.753201484680176,-2.097320795059204,1.9823989868164062
2.2230589389801025,-8.83939266204834,-2.164358377456665,1.9632453918457031
2.2252414226531982,-8.89685344696045,-2.2409727573394775,1.8387469053268433
2.2274069786071777,-8.916007041931152,-2.279279947280884,1.8770540952682495
2.228482723236084,-8.829815864562988,-2.231395959854126,2.0015525817871094
2.23069167137146,-8.78193187713623,-2.231395959854126,2.0398597717285156
2.232874631881714,-8.695740699768066,-2.1547815799713135,2.0590133666992188
2.23504900932312,-8.667010307312012,-2.126051187515259,2.1356279850006104
2.2372567653656006,-8.65743350982666,-2.078166961669922,2.164358377456665
2.2383623123168945,-8.580819129943848,-2.049436569213867,2.164358377456665
2.2405428886413574,-8.513781547546387,-2.049436569213867,2.183511972427368
2.242722511291504,-8.571242332458496,-2.078166961669922,2.250549554824829
2.2449498176574707,-8.638279914855957,-2.145204782485962,2.1930887699127197
2.2471554279327393,-8.705317497253418,-2.2218191623687744,2.0590133666992188
2.2482714653015137,-8.78193187713623,-2.2697031497955322,1.9536685943603516
2.2504396438598633,-8.829815864562988,-2.2601263523101807,1.9345149993896484
2.2526168823242188,-8.734047889709473,-2.2888567447662354,1.9153614044189453
2.254782199859619,-8.705317497253418,-2.2218191623687744,1.944091796875
2.2558655738830566,-8.638279914855957,-2.1930887699127197,2.1164743900299072
2.2580039501190186,-8.667010307312012,-2.183511972427368,2.0398597717285156
2.260279893875122,-8.571242332458496,-2.164358377456665,2.0590133666992188
2.2625091075897217,-8.552088737487793,-2.1068975925445557,2.1739351749420166
2.2647287845611572,-8.465897560119629,-2.1356279850006104,2.346317768096924
2.2658374309539795,-8.418013572692871,-2.1930887699127197,2.298433542251587
2.2680206298828125,-8.523358345031738,-2.1930887699127197,2.2218191623687744
2.2701995372772217,-8.59997272491455,-2.183511972427368,2.126051187515259
2.2723782062530518,-8.65743350982666,-2.2697031497955322,1.9536685943603516
2.274531841278076,-8.686163902282715,-2.2888567447662354,1.9249382019042969
2.2756080627441406,-8.676587104797363,-2.2409727573394775,2.0685901641845703
2.2777724266052246,-8.647856712341309,-2.279279947280884,2.126051187515259
2.279935598373413,-8.513781547546387,-2.2218191623687744,2.0685901641845703
2.282121181488037,-8.561665534973145,-2.231395959854126,2.097320795059204
2.284327268600464,-8.494627952575684,-2.183511972427368,2.212242364883423
2.285428047180176,-8.513781547546387,-2.2026655673980713,2.2026655673980713
2.2876060009002686,-8.389283180236816,-2.1739351749420166,2.231395959854126
2.2897822856903076,-8.389283180236816,-2.212242364883423,2.2697031497955322
2.292062520980835,-8.437167167663574,-2.2218191623687744,2.231395959854126
2.293200731277466,-8.465897560119629,-2.2601263523101807,2.145204782485962
2.29538631439209,-8.5903959274292,-2.3271639347076416,2.0877439975738525
2.29754376411438,-8.552088737487793,-2.3271639347076416,2.164358377456665
2.2996816635131836,-8.571242332458496,-2.3271639347076416,2.078166961669922
2.3018269538879395,-8.504204750061035,-2.3367409706115723,2.011129379272461
2.3029098510742188,-8.523358345031738,-2.2697031497955322,2.0877439975738525
2.305046319961548,-8.523358345031738,-2.3080103397369385,2.250549554824829
2.3072431087493896,-8.437167167663574,-2.279279947280884,2.145204782485962
2.309419870376587,-8.418013572692871,-2.2601263523101807,2.183511972427368
2.311591625213623,-8.303091049194336,-2.250549554824829,2.3080103397369385
2.313762903213501,-8.33182144165039,-2.164358377456665,2.298433542251587
2.3148610591888428,-8.255207061767578,-2.183511972427368,2.250549554824829
2.31704044342041,-8.370129585266113,-2.1930887699127197,2.279279947280884
2.319237232208252,-8.418013572692871,-2.250549554824829,2.164358377456665
2.3214125633239746,-8.485051155090332,-2.298433542251587,2.030282974243164
2.322495698928833,-8.571242332458496,-2.298433542251587,2.0015525817871094
2.3246653079986572,-8.494627952575684,-2.2888567447662354,2.164358377456665
2.3268256187438965,-8.437167167663574,-2.2888567447662354,2.2218191623687744
2.3289880752563477,-8.303091049194336,-2.2601263523101807,2.2218191623687744
2.3311688899993896,-8.360552787780762,-2.2026655673980713,2.1930887699127197
2.3333470821380615,-8.322244644165039,-2.1547815799713135,2.3080103397369385
2.33444881439209,-8.26478385925293,-2.145204782485962,2.2697031497955322
2.3366286754608154,-8.26478385925293,-2.1930887699127197,2.231395959854126
2.3388125896453857,-8.303091049194336,-2.145204782485962,2.3750481605529785
2.341022253036499,-8.303091049194336,-2.2026655673980713,2.2601263523101807
2.3432376384735107,-8.312667846679688,-2.231395959854126,2.1356279850006104
2.344318389892578,-8.437167167663574,-2.279279947280884,2.0398597717285156
2.3464877605438232,-8.418013572692871,-2.2601263523101807,2.2601263523101807
2.348660469055176,-8.360552787780762,-2.2601263523101807,2.231395959854126
2.3508341312408447,-8.26478385925293,-2.250549554824829,2.212242364883423
2.3519113063812256,-8.303091049194336,-2.1547815799713135,2.2888567447662354
2.3540942668914795,-8.255207061767578,-2.1356279850006104,2.3558945655822754
2.356293201446533,-8.226476669311523,-2.145204782485962,2.2697031497955322
2.3585078716278076,-8.216899871826172,-2.1356279850006104,2.38462495803833
2.360703229904175,-8.197746276855469,-2.0685901641845703,2.4803929328918457
2.361811876296997,-8.08282470703125,-2.0590133666992188,2.432508945465088
2.3639936447143555,-8.121131896972656,-2.1164743900299072,2.346317768096924
2.3661751747131348,-8.283937454223633,-2.183511972427368,2.365471363067627
2.3683664798736572,-8.312667846679688,-2.1930887699127197,2.31758713722229
2.3705716133117676,-8.35097599029541,-2.212242364883423,2.1930887699127197
2.371671199798584,-8.303091049194336,-2.1930887699127197,2.126051187515259
2.373823881149292,-8.274360656738281,-2.1547815799713135,2.2888567447662354
2.3760108947753906,-8.226476669311523,-2.183511972427368,2.250549554824829
2.3782169818878174,-8.197746276855469,-2.1739351749420166,2.2026655673980713
2.3803958892822266,-8.197746276855469,-2.097320795059204,2.346317768096924
2.381495714187622,-8.197746276855469,-2.126051187515259,2.3367409706115723
2.3847930431365967,-8.159439086914062,-2.097320795059204,2.212242364883423
2.385901689529419,-8.188169479370117,-2.078166961669922,2.183511972427368
2.388112783432007,-8.236053466796875,-2.1164743900299072,2.298433542251587
2.3892040252685547,-8.236053466796875,-2.1547815799713135,2.279279947280884
2.3913440704345703,-8.245630264282227,-2.145204782485962,2.2026655673980713
2.393484354019165,-8.26478385925293,-2.1547815799713135,2.1547815799713135
2.395622968673706,-8.255207061767578,-2.1164743900299072,2.231395959854126
2.397763967514038,-8.236053466796875,-2.1356279850006104,2.1930887699127197
2.3999390602111816,-8.20732307434082,-2.1068975925445557,2.2601263523101807
2.401040554046631,-8.255207061767578,-2.0685901641845703,2.31758713722229
2.403217315673828,-8.236053466796875,-2.030282974243164,2.3271639347076416
2.4053940773010254,-8.216899871826172,-2.0398597717285156,2.145204782485962
2.4076125621795654,-8.274360656738281,-2.097320795059204,2.31758713722229
2.409796953201294,-8.255207061767578,-2.049436569213867,2.451662540435791
2.4108991622924805,-8.197746276855469,-2.030282974243164,2.470816135406494
2.4130475521087646,-8.159439086914062,-2.0398597717285156,2.499546527862549
2.4151909351348877,-8.236053466796875,-1.9919757843017578,2.537853717803955
2.417355537414551,-8.245630264282227,-2.011129379272461,2.585737943649292
2.4195220470428467,-8.283937454223633,-2.011129379272461,2.451662540435791
2.4205985069274902,-8.26478385925293,-2.011129379272461,2.4899697303771973
2.4227707386016846,-8.274360656738281,-2.011129379272461,2.5761611461639404
2.4249496459960938,-8.188169479370117,-2.0015525817871094,2.557007312774658
2.4273908138275146,-8.255207061767578,-2.030282974243164,2.499546527862549
2.42850661277771,-8.293514251708984,-2.011129379272461,2.604891538619995
2.430696964263916,-8.255207061767578,-1.9536685943603516,2.691082715988159
2.4328830242156982,-8.159439086914062,-1.9728221893310547,2.5761611461639404
2.435260772705078,-8.14028549194336,-1.944091796875,2.5665841102600098
2.4363484382629395,-8.216899871826172,-1.8962076902389526,2.6240451335906982
2.4384989738464355,-8.197746276855469,-1.9057846069335938,2.5761611461639404
2.4406611919403076,-8.236053466796875,-1.9823989868164062,2.403778553009033
2.4428176879882812,-8.35097599029541,-1.9823989868164062,2.3750481605529785
2.4449665546417236,-8.379706382751465,-1.9632453918457031,2.432508945465088
2.446047067642212,-8.33182144165039,-2.030282974243164,2.3271639347076416
2.448251485824585,-8.274360656738281,-2.011129379272461,2.3750481605529785
2.4504473209381104,-8.341399192810059,-2.0207061767578125,2.451662540435791
2.4526426792144775,-8.293514251708984,-1.9919757843017578,2.557007312774658
2.454861640930176,-8.283937454223633,-2.0015525817871094,2.4229321479797363
2.4559762477874756,-8.293514251708984,-1.9823989868164062,2.31758713722229
2.4581587314605713,-8.303091049194336,-1.9249382019042969,2.4803929328918457
2.460343360900879,-8.245630264282227,-1.9249382019042969,2.5474305152893066
2.4624922275543213,-8.159439086914062,-1.9632453918457031,2.5953147411346436
2.464660167694092,-8.245630264282227,-1.9632453918457031,2.5953147411346436
2.465742349624634,-8.283937454223633,-1.944091796875,2.652775526046753
2.467902183532715,-8.33182144165039,-1.9632453918457031,2.470816135406494
2.470090866088867,-8.33182144165039,-1.9345149993896484,2.4803929328918457
2.4722750186920166,-8.40843677520752,-1.9632453918457031,2.537853717803955
2.474454641342163,-8.303091049194336,-1.9057846069335938,2.6815059185028076
2.4755642414093018,-8.283937454223633,-1.867477297782898,2.5282769203186035
2.4777469635009766,-8.255207061767578,-1.8770540952682495,2.6240451335906982
2.4799301624298096,-8.322244644165039,-1.8195933103561401,2.719813108444214
2.4821293354034424,-8.236053466796875,-1.8962076902389526,2.7676970958709717
2.4842841625213623,-8.226476669311523,-1.8770540952682495,2.671929121017456
2.485363721847534,-8.274360656738281,-1.8579005002975464,2.8155810832977295
2.4875309467315674,-8.245630264282227,-1.9153614044189453,2.82515811920166
2.489687919616699,-8.245630264282227,-1.9153614044189453,2.7006595134735107
2.4918339252471924,-8.513781547546387,-2.0015525817871094,2.346317768096924
2.494004487991333,-9.710882186889648,-1.6376339197158813,1.4652514457702637
2.4951064586639404,-6.205770969390869,-1.2641384601593018,3.5625722408294678
2.497286558151245,-0.12449848651885986,-1.9153614044189453,10.54406452178955
2.499455213546753,-10.582371711730957,-1.647210717201233,1.4652514457702637
2.501624584197998,-9.605537414550781,-1.4939818382263184,-7.2113356590271
2.503791570663452,-15.935806274414062,-4.855441093444824,-6.627150535583496
2.504910469055176,-20.638019561767578,-4.462791919708252,-3.3423056602478027
2.5070695877075195,-9.107542991638184,-3.19865345954895,-0.7948749661445618
2.50921630859375,-10.295066833496094,-5.228936672210693,7.2783732414245605
2.5113699436187744,-8.121131896972656,-4.213795185089111,2.9975404739379883
2.513550043106079,-5.928043365478516,-1.8195933103561401,2.499546527862549
2.5157697200775146,-13.21599292755127,-5.813121795654297,4.242525577545166
2.516880512237549,-14.010868072509766,-3.1890766620635986,4.912901878356934
2.5190601348876953,-12.047622680664062,-1.0342950820922852,0.6224924325942993
2.521238327026367,-13.464990615844727,-2.3942017555236816,2.75812029838562
2.523413896560669,-13.311761856079102,-1.1013327836990356,0.6416460275650024
2.524550676345825,-12.009315490722656,-2.4612393379211426,0.08619125932455063
2.526746988296509,-16.136919021606445,-5.430049419403076,6.042964935302734
2.528925895690918,-14.020444869995117,-3.5913026332855225,8.20732307434082
2.531097173690796,-12.373234748840332,-2.4420857429504395,4.242525577545166
2.53218936920166,-12.54561710357666,-2.31758713722229,5.286397457122803
2.534353017807007,-13.828908920288086,-1.4173674583435059,5.219359874725342
2.53650164604187,-14.460978507995605,-2.0015525817871094,5.774814605712891
2.538662910461426,-15.715539932250977,-4.395754337310791,7.728483200073242
2.5408358573913574,-15.437812805175781,-2.8347349166870117,8.53293514251709
2.543013095855713,-12.890381813049316,-2.2697031497955322,6.885724067687988
2.544113874435425,-14.556746482849121,-2.7964274883270264,6.732495307922363
2.5462920665740967,-14.336480140686035,-2.2697031497955322,7.450755596160889
2.5484678745269775,-16.021997451782227,-3.361459255218506,8.485051155090332
2.5506622791290283,-17.13290786743164,-4.003105163574219,9.53849983215332
2.552833080291748,-14.460978507995605,-2.9017724990844727,8.53293514251709
2.55391526222229,-14.106636047363281,-2.853888511657715,8.063671112060547
2.5560574531555176,-14.09705924987793,-3.141192674636841,8.96389102935791
2.558225631713867,-14.709975242614746,-3.2178070545196533,9.557653427124023
2.560375213623047,-16.443376541137695,-3.936067581176758,9.126696586608887
2.5625579357147217,-16.4625301361084,-3.3423056602478027,8.178592681884766
2.5636744499206543,-15.322891235351562,-2.518700122833252,6.531382083892822
2.5658609867095947,-14.844050407409668,-2.853888511657715,6.090848922729492
2.568047285079956,-14.901511192321777,-3.4572272300720215,7.182605266571045
2.5702273845672607,-15.49527359008789,-3.9456443786621094,7.8529815673828125
2.572460889816284,-16.089035034179688,-4.213795185089111,7.163451671600342
2.5735745429992676,-15.686809539794922,-3.6296098232269287,6.042964935302734
2.575727701187134,-15.476119995117188,-3.380612850189209,5.315127849578857
2.5778706073760986,-15.380352020263672,-3.8786067962646484,5.784391403198242
2.5800156593322754,-15.504850387573242,-4.434061527252197,6.445190906524658
2.5821549892425537,-15.811307907104492,-4.587290287017822,6.215347766876221
2.5832388401031494,-15.591041564941406,-4.3191399574279785,5.324704647064209
2.5854129791259766,-15.30373764038086,-3.8977603912353516,4.654327869415283
2.587592840194702,-14.987702369689941,-3.8307228088378906,4.529829502105713
2.5897715091705322,-15.207969665527344,-4.022258758544922,5.200206279754639
2.5919606685638428,-15.389928817749023,-4.2329487800598145,5.4875102043151855
2.5941483974456787,-15.10262393951416,-4.261679172515869,5.018246650695801
2.5952541828155518,-14.690821647644043,-4.20421838760376,4.721365928649902
2.597433090209961,-14.211980819702148,-4.079719543457031,4.865017890930176
2.5996463298797607,-13.991714477539062,-4.098873138427734,5.353435039520264
2.601801633834839,-14.09705924987793,-4.1180267333984375,5.669469833374023
2.6039719581604004,-13.953407287597656,-3.936067581176758,5.372588634490967
2.6050522327423096,-13.809755325317383,-3.8115692138671875,4.76924991607666
2.607215166091919,-13.407529830932617,-3.7445313930511475,4.491522312164307
2.609400510787964,-13.081917762756348,-3.8977603912353516,5.008669853210449
2.61159086227417,-12.938265800476074,-4.022258758544922,5.5545477867126465
2.6127004623413086,-12.78503704071045,-3.9839515686035156,5.583278179168701
2.61490797996521,-12.593501091003418,-3.667917013168335,5.0469770431518555
2.617116689682007,-12.277466773986816,-3.3710360527038574,4.548983097076416
2.619342803955078,-11.808202743530273,-3.19865345954895,4.6734819412231445
2.6215155124664307,-11.386823654174805,-3.246537446975708,5.114014625549316
2.622603416442871,-11.176133155822754,-3.313575267791748,5.4013190269470215
2.6247596740722656,-10.898406028747559,-3.1220390796661377,5.123591423034668
2.628087282180786,-10.716446876525879,-2.9305028915405273,4.596867084503174
2.6291751861572266,-10.5344877243042,-2.7485435009002686,4.165910720825195
2.630253791809082,-10.256759643554688,-2.7006595134735107,4.347870349884033
2.6324307918548584,-10.055646896362305,-2.738966703414917,4.568136692047119
2.6346094608306885,-9.634267807006836,-2.691082715988159,4.405331134796143
2.636800527572632,-9.260771751403809,-2.585737943649292,4.194641590118408
2.638979434967041,-9.002198219299316,-2.4803929328918457,3.8307228088378906
2.6411614418029785,-8.638279914855957,-2.4133553504943848,3.734954595565796
2.6422624588012695,-8.47547435760498,-2.365471363067627,3.8115692138671875
2.6444296836853027,-8.26478385925293,-2.3080103397369385,3.7445313930511475
2.6465842723846436,-7.891288757324219,-2.097320795059204,3.3039982318878174
2.6487555503845215,-7.575253963470459,-2.1068975925445557,2.8634653091430664
2.6509292125701904,-7.354987621307373,-2.145204782485962,2.7293899059295654
2.6520116329193115,-7.201758861541748,-2.1930887699127197,2.75812029838562
2.654186725616455,-6.971915245056152,-2.2218191623687744,2.5761611461639404
2.6563704013824463,-6.71334171295166,-2.0685901641845703,2.3271639347076416
2.6585564613342285,-6.387730121612549,-1.9153614044189453,1.9919757843017578
2.6607327461242676,-6.100425720214844,-1.8770540952682495,1.5610195398330688
2.661829948425293,-5.9088897705078125,-1.9057846069335938,1.3311761617660522
2.6640076637268066,-5.822698593139648,-1.9536685943603516,1.455674648284912
2.6661758422851562,-5.525817394256592,-1.944091796875,1.2641384601593018
2.668377161026001,-5.190629482269287,-1.8483237028121948,1.0055646896362305
2.6694653034210205,-4.960785865783691,-1.7717092037200928,0.727837324142456
2.6716184616088867,-4.836287498474121,-1.7046716213226318,0.6224924325942993
2.6737749576568604,-4.6734819412231445,-1.6663644313812256,0.5650315880775452
2.6759324073791504,-4.462791919708252,-1.6855180263519287,0.4596867263317108
2.6781411170959473,-4.1180267333984375,-1.5610195398330688,0.2968810200691223
2.680347442626953,-3.9456443786621094,-1.50355863571167,0.15322890877723694
2.681457996368408,-3.7253777980804443,-1.4077905416488647,0.12449848651885986
2.6836578845977783,-3.5051112174987793,-1.4652514457702637,0.047884032130241394
2.6858577728271484,-3.466804027557373,-1.3886369466781616,0.13407529890537262
2.688066244125366,-3.2848446369171143,-1.292868971824646,0.009576806798577309
2.6892426013946533,-3.0837318897247314,-1.158793568611145,-0.09576806426048279
2.6914732456207275,-2.853888511657715,-1.158793568611145,-0.15322890877723694
2.6936349868774414,-2.7772738933563232,-1.1300631761550903,-0.05746084079146385
2.695791244506836,-2.7006595134735107,-1.1204863786697388,-0.047884032130241394
2.6979575157165527,-2.5474305152893066,-1.072602391242981,-0.028730420395731926
2.6990349292755127,-2.4612393379211426,-1.0055646896362305,-0.07661445438861847
2.7012178897857666,-2.2601263523101807,-0.9193734526634216,-0.10534487664699554
2.7034080028533936,-2.2026655673980713,-0.871489405632019,-0.2106897532939911
2.7056026458740234,-2.126051187515259,-0.8331822156906128,-0.181959331035614
2.707872152328491,-2.0207061767578125,-0.7948749661445618,-0.17238251864910126
2.7089762687683105,-2.030282974243164,-0.7661445140838623,-0.19153612852096558
2.711155652999878,-1.9345149993896484,-0.6991068720817566,-0.2968810200691223
2.71343731880188,-1.8100165128707886,-0.689530074596405,-0.3064578175544739
2.7156195640563965,-1.8100165128707886,-0.7086837291717529,-0.2298433631658554
2.7166996002197266,-1.8100165128707886,-0.6703764796257019,-0.12449848651885986
2.718845844268799,-1.7717092037200928,-0.6799532771110535,-0.2106897532939911
2.720991373062134,-1.7908629179000854,-0.6033388376235962,-0.43095630407333374
2.723228693008423,-1.7908629179000854,-0.5554547905921936,-0.49799394607543945
2.7254488468170166,-1.8195933103561401,-0.5841852426528931,-0.5171475410461426
2.7265539169311523,-1.8100165128707886,-0.5937620401382446,-0.4884171485900879
2.7287333011627197,-1.8770540952682495,-0.6224924325942993,-0.4884171485900879
2.7309138774871826,-1.8770540952682495,-0.5746083855628967,-0.5267243981361389
2.73313307762146,-1.9153614044189453,-0.6416460275650024,-0.49799394607543945
2.7342395782470703,-2.030282974243164,-0.6991068720817566,-0.4596867263317108
2.7364206314086914,-2.1356279850006104,-0.7374141216278076,-0.31603461503982544
2.738570213317871,-2.2409727573394775,-0.7948749661445618,-0.28730419278144836
2.740889310836792,-2.38462495803833,-0.8427590131759644,-0.3926490843296051
2.7430410385131836,-2.4803929328918457,-0.8331822156906128,-0.45010992884635925
2.7441327571868896,-2.604891538619995,-0.8044517636299133,-0.363918662071228
2.7462804317474365,-2.738966703414917,-0.8044517636299133,-0.24899697303771973
2.7484517097473145,-2.8826189041137695,-0.8140285611152649,-0.1628057211637497
2.7506587505340576,-3.026270866394043,-0.8140285611152649,-0.05746084079146385
2.7528762817382812,-3.0550012588500977,-0.8236053586006165,-0.019153613597154617
2.7539947032928467,-3.112462282180786,-0.8044517636299133,0.14365209639072418
2.7561893463134766,-3.2752678394317627,-0.8427590131759644,0.2777273952960968
2.7583868503570557,-3.581725835800171,-0.871489405632019,0.4213795065879822
2.7606089115142822,-3.754108190536499,-0.8619126081466675,0.40222588181495667
2.7617008686065674,-3.955221176147461,-0.8619126081466675,0.4596867263317108
2.763845205307007,-4.213795185089111,-0.9385270476341248,0.4405331015586853
2.7660152912139893,-4.299986362457275,-0.9289502501487732,0.5650315880775452
2.768170118331909,-4.529829502105713,-0.9959878921508789,0.7086837291717529
2.770373582839966,-4.7405195236206055,-1.015141487121582,0.8619126081466675
2.7725954055786133,-4.932055473327637,-1.0247182846069336,0.9481038451194763
2.773699998855591,-5.07570743560791,-0.9959878921508789,1.0055646896362305
2.7758758068084717,-5.20978307723999,-0.9768342971801758,1.1013327836990356
2.7780725955963135,-5.372588634490967,-0.9481038451194763,1.235408067703247
2.780282974243164,-5.592854976654053,-0.9768342971801758,1.3311761617660522
2.7813920974731445,-5.803544998168945,-1.0247182846069336,1.37906014919281
2.7835700511932373,-6.138733386993408,-1.0534487962722778,1.3120225667953491
2.785731315612793,-6.349422931671143,-1.0438719987869263,1.37906014919281
2.787900924682617,-6.560112476348877,-1.1013327836990356,1.3886369466781616
2.7900540828704834,-6.761225700378418,-1.1204863786697388,1.5322890281677246
2.7911295890808105,-6.952761650085449,-1.1300631761550903,1.6950948238372803
2.7932698726654053,-7.173028469085693,-1.139639973640442,1.7812861204147339
2.7954421043395996,-7.33583402633667,-1.158793568611145,1.9153614044189453
2.797670364379883,-7.469909191131592,-1.139639973640442,2.0398597717285156
2.7998883724212646,-7.613561630249023,-1.1204863786697388,2.1164743900299072
2.8009984493255615,-7.833827972412109,-1.1013327836990356,2.231395959854126
2.8031868934631348,-8.092401504516602,-1.158793568611145,2.3080103397369385
2.805368423461914,-8.35097599029541,-1.1204863786697388,2.31758713722229
2.8075478076934814,-8.59997272491455,-1.1109095811843872,2.3080103397369385
2.8096981048583984,-8.810662269592285,-1.1492167711257935,2.3558945655822754
2.8107845783233643,-9.02135181427002,-1.1109095811843872,2.499546527862549
2.8129308223724365,-9.21288776397705,-1.1779472827911377,2.652775526046753
2.8150789737701416,-9.375694274902344,-1.1779472827911377,2.7293899059295654
2.817295789718628,-9.615114212036133,-1.2641384601593018,2.9017724990844727
2.819507122039795,-9.873687744140625,-1.2737152576446533,3.00711727142334
2.820608615875244,-10.017339706420898,-1.3120225667953491,3.0837318897247314
2.8228113651275635,-10.266336441040039,-1.3311761617660522,3.1507694721221924
2.8249971866607666,-10.438719749450684,-1.4077905416488647,3.2848446369171143
2.8272581100463867,-10.706870079040527,-1.37906014919281,3.3710360527038574
2.8294665813446045,-10.917559623718262,-1.37906014919281,3.44765043258667
2.8305742740631104,-11.03248119354248,-1.3982137441635132,3.6296098232269287
2.8327317237854004,-11.281478881835938,-1.436521053314209,3.706224203109741
2.834900379180908,-11.463438034057617,-1.4844050407409668,3.8307228088378906
2.837078332901001,-11.549629211425781,-1.455674648284912,4.041412353515625
2.8381621837615967,-11.741165161132812,-1.50355863571167,4.1180267333984375
2.8403079509735107,-11.894393920898438,-1.455674648284912,4.194641590118408
2.842484474182129,-12.047622680664062,-1.5131354331970215,4.309563159942627
2.84464168548584,-12.248735427856445,-1.5897499322891235,4.434061527252197
2.8467979431152344,-12.373234748840332,-1.5897499322891235,4.663905143737793
2.8478827476501465,-12.401965141296387,-1.5897499322891235,4.817133903503418
2.850031852722168,-12.497733116149902,-1.5897499322891235,4.884171485900879
2.8521769046783447,-12.641385078430176,-1.5897499322891235,4.999093055725098
2.854357957839966,-12.775460243225098,-1.5705963373184204,5.1331682205200195
2.8565618991851807,-12.85207462310791,-1.5897499322891235,5.228936672210693
2.8587729930877686,-12.861651420593262,-1.599326729774475,5.295974254608154
2.8598806858062744,-12.947842597961426,-1.599326729774475,5.353435039520264
2.8620378971099854,-13.014880180358887,-1.656787633895874,5.468356609344482
2.864189863204956,-13.081917762756348,-1.6759412288665771,5.506663799285889
2.8663392066955566,-13.148955345153809,-1.7142484188079834,5.602431774139404
2.8684935569763184,-13.15853214263916,-1.7142484188079834,5.669469833374023
2.8695738315582275,-13.206416130065918,-1.723825216293335,5.659893035888672
2.8717470169067383,-13.21599292755127,-1.723825216293335,5.640739440917969
2.873934030532837,-13.24472427368164,-1.742978811264038,5.57370138168335
2.8761470317840576,-13.30218505859375,-1.8100165128707886,5.5545477867126465
2.8783395290374756,-13.30218505859375,-1.8770540952682495,5.506663799285889
2.8794262409210205,-13.35964584350586,-1.8962076902389526,5.439626216888428
2.881577968597412,-13.292608261108398,-1.9536685943603516,5.353435039520264
2.883730173110962,-13.235146522521973,-1.9919757843017578,5.286397457122803
2.8858792781829834,-13.24472427368164,-2.049436569213867,5.171475887298584
2.888082265853882,-13.235146522521973,-2.145204782485962,5.07570743560791
2.8892054557800293,-13.235146522521973,-2.1739351749420166,4.970362663269043
2.891396999359131,-13.235146522521973,-2.2409727573394775,4.730942726135254
2.89367413520813,-13.187262535095215,-2.231395959854126,4.491522312164307
2.8958818912506104,-13.120224952697754,-2.3271639347076416,4.32871675491333
2.898061990737915,-13.129801750183105,-2.3558945655822754,4.156333923339844
2.8991599082946777,-13.03403377532959,-2.4133553504943848,4.20421838760376
2.9013400077819824,-12.957419395446777,-2.4420857429504395,3.993528366088867
2.9034860134124756,-12.832921028137207,-2.4229321479797363,4.003105163574219
2.9056649208068848,-12.72757625579834,-2.470816135406494,3.955221176147461
2.9067542552948,-12.631808280944824,-2.451662540435791,4.003105163574219
2.9089434146881104,-12.449849128723145,-2.5282769203186035,4.031835556030273
2.9111180305480957,-12.382811546325684,-2.470816135406494,3.993528366088867
2.913322925567627,-12.267889976501465,-2.4899697303771973,3.993528366088867
2.9155285358428955,-12.181697845458984,-2.4612393379211426,3.993528366088867
2.9166312217712402,-12.057199478149414,-2.4612393379211426,4.031835556030273
2.918821334838867,-11.856086730957031,-2.432508945465088,4.098873138427734
2.921015739440918,-11.750741958618164,-2.38462495803833,4.156333923339844
2.923211097717285,-11.568782806396484,-2.4229321479797363,4.213795185089111
2.924372911453247,-11.367670059204102,-2.3271639347076416,4.299986362457275
2.9265356063842773,-11.1474027633667,-2.279279947280884,4.414907932281494
2.9287047386169434,-11.022904396057129,-2.31758713722229,4.443638324737549
2.9308886528015137,-10.879252433776855,-2.2697031497955322,4.4532151222229
2.933134078979492,-10.716446876525879,-2.231395959854126,4.395754337310791
2.9343152046203613,-10.591948509216309,-2.2409727573394775,4.261679172515869
2.936523914337158,-10.438719749450684,-2.2697031497955322,4.252102375030518
2.938659191131592,-10.304644584655762,-2.2888567447662354,4.185064792633057
2.940826892852783,-10.180145263671875,-2.3271639347076416,4.108449935913086
2.9429917335510254,-10.007762908935547,-2.3271639347076416,4.079719543457031
2.9440853595733643,-9.758766174316406,-2.3367409706115723,3.9456443786621094
2.9462764263153076,-9.576807022094727,-2.298433542251587,3.9456443786621094
2.948439121246338,-9.442731857299805,-2.3080103397369385,3.734954595565796
2.950582504272461,-9.232041358947754,-2.346317768096924,3.620033025741577
2.952754497528076,-9.107542991638184,-2.365471363067627,3.44765043258667
2.9538350105285645,-8.89685344696045,-2.403778553009033,3.294421434402466
2.956000566482544,-8.801085472106934,-2.432508945465088,3.1220390796661377
2.9581828117370605,-8.667010307312012,-2.470816135406494,2.959233283996582
2.960364818572998,-8.571242332458496,-2.518700122833252,2.82515811920166
2.962540626525879,-8.40843677520752,-2.5474305152893066,2.7006595134735107
2.963686227798462,-8.236053466796875,-2.585737943649292,2.557007312774658
2.9659109115600586,-8.121131896972656,-2.5665841102600098,2.4803929328918457
2.968126058578491,-7.920019149780273,-2.585737943649292,2.3750481605529785
2.9703240394592285,-7.757213592529297,-2.6240451335906982,2.2601263523101807
2.971405029296875,-7.642292022705078,-2.6240451335906982,2.2026655673980713
2.973545789718628,-7.479485988616943,-2.6431987285614014,2.0877439975738525
2.9756903648376465,-7.316680431365967,-2.652775526046753,1.9632453918457031
2.977832555770874,-7.230489253997803,-2.691082715988159,1.944091796875
2.9800288677215576,-7.029376029968262,-2.7006595134735107,1.8483237028121948
2.9822330474853516,-6.971915245056152,-2.6240451335906982,1.7717092037200928
2.983335494995117,-6.789956092834473,-2.63362193107605,1.8483237028121948
2.985513210296631,-6.675034523010254,-2.7006595134735107,1.7046716213226318
2.987694025039673,-6.502651691436768,-2.7006595134735107,1.6663644313812256
2.9898977279663086,-6.406883716583252,-2.6623523235321045,1.580173134803772
2.992088556289673,-6.27280855178833,-2.6623523235321045,1.6184803247451782
2.993185520172119,-6.14831018447876,-2.585737943649292,1.5322890281677246
2.9953320026397705,-6.071695327758789,-2.5665841102600098,1.4652514457702637
2.997480869293213,-5.918466567993164,-2.5474305152893066,1.4748282432556152
2.9996447563171387,-5.803544998168945,-2.5474305152893066,1.455674648284912
3.001788854598999,-5.717353820800781,-2.5091233253479004,1.3503297567367554
3.00288724899292,-5.57370138168335,-2.451662540435791,1.3215993642807007
3.0051214694976807,-5.477933406829834,-2.470816135406494,1.3407529592514038
3.007392406463623,-5.39174222946167,-2.432508945465088,1.2258312702178955
3.0096492767333984,-5.295974254608154,-2.403778553009033,1.1300631761550903
3.0107672214508057,-5.295974254608154,-2.365471363067627,1.1683704853057861
3.0129523277282715,-5.200206279754639,-2.432508945465088,1.0534487962722778
3.0151290893554688,-5.104437828063965,-2.38462495803833,1.0247182846069336
3.0172815322875977,-5.066130638122559,-2.4133553504943848,1.015141487121582
3.019426107406616,-5.027823448181152,-2.3750481605529785,1.072602391242981
3.0206246376037598,-4.912901878356934,-2.4229321479797363,1.0342950820922852
3.0227761268615723,-4.865017890930176,-2.470816135406494,0.9959878921508789
3.0249528884887695,-4.865017890930176,-2.4420857429504395,1.0247182846069336
3.027167558670044,-4.807557106018066,-2.4420857429504395,1.0438719987869263
3.028277635574341,-4.778826713562012,-2.4133553504943848,1.0247182846069336
3.030456304550171,-4.778826713562012,-2.4612393379211426,0.9385270476341248
3.032723903656006,-4.702212333679199,-2.3558945655822754,0.9385270476341248
3.034951686859131,-4.730942726135254,-2.451662540435791,0.8236053586006165
3.0371456146240234,-4.759673118591309,-2.470816135406494,0.9385270476341248
3.0382518768310547,-4.759673118591309,-2.470816135406494,0.8619126081466675
3.040400743484497,-4.836287498474121,-2.432508945465088,0.8236053586006165
3.042548894882202,-4.836287498474121,-2.4803929328918457,0.7661445140838623
3.0446999073028564,-4.855441093444824,-2.499546527862549,0.7852981686592102
3.046877861022949,-4.884171485900879,-2.4803929328918457,0.7948749661445618
3.047964572906494,-4.922478675842285,-2.4612393379211426,0.8523358106613159
3.050128221511841,-4.932055473327637,-2.470816135406494,0.8523358106613159
3.05234432220459,-4.960785865783691,-2.4803929328918457,0.9193734526634216
3.054518461227417,-4.9799394607543945,-2.4899697303771973,1.015141487121582
3.0566883087158203,-5.07570743560791,-2.4420857429504395,1.0055646896362305
3.0577995777130127,-5.161899089813232,-2.432508945465088,1.0534487962722778
3.0599865913391113,-5.20978307723999,-2.432508945465088,1.0821791887283325
3.0621933937072754,-5.200206279754639,-2.4420857429504395,1.1204863786697388
3.0643672943115234,-5.276820659637451,-2.4133553504943848,1.1683704853057861
3.0654590129852295,-5.3342814445495605,-2.4229321479797363,1.2258312702178955
3.067636728286743,-5.439626216888428,-2.403778553009033,1.3407529592514038
3.069798231124878,-5.468356609344482,-2.3942017555236816,1.3120225667953491
3.071955919265747,-5.51624059677124,-2.365471363067627,1.3982137441635132
3.0741281509399414,-5.592854976654053,-2.346317768096924,1.4844050407409668
3.076298713684082,-5.659893035888672,-2.298433542251587,1.4652514457702637
3.0773932933807373,-5.7556610107421875,-2.279279947280884,1.522712230682373
3.079563617706299,-5.784391403198242,-2.279279947280884,1.5610195398330688
3.0817322731018066,-5.899312973022461,-2.212242364883423,1.5897499322891235
3.0839030742645264,-5.985504150390625,-2.231395959854126,1.5514427423477173
3.0860893726348877,-6.0621185302734375,-2.2218191623687744,1.5610195398330688
3.0871853828430176,-6.157886981964111,-2.1739351749420166,1.6089035272598267
3.089329242706299,-6.311115741729736,-2.2026655673980713,1.6280571222305298
3.0914952754974365,-6.339846134185791,-2.2026655673980713,1.6184803247451782
3.0936503410339355,-6.445190906524658,-2.1164743900299072,1.6376339197158813
3.0958333015441895,-6.531382083892822,-2.145204782485962,1.6280571222305298
3.096940279006958,-6.636727333068848,-2.0877439975738525,1.6280571222305298
3.099118709564209,-6.71334171295166,-2.1164743900299072,1.6376339197158813
3.101289749145508,-6.828263282775879,-2.078166961669922,1.7046716213226318
3.103457450866699,-6.952761650085449,-2.0590133666992188,1.6855180263519287
3.1056342124938965,-7.067683219909668,-2.030282974243164,1.7334020137786865
3.1067304611206055,-7.144298076629639,-2.0207061767578125,1.7525556087493896
3.108916997909546,-7.33583402633667,-2.0015525817871094,1.800439715385437
3.111076593399048,-7.402871608734131,-1.9728221893310547,1.8195933103561401
3.1132194995880127,-7.479485988616943,-1.8962076902389526,1.8195933103561401
3.1153995990753174,-7.632715225219727,-1.8770540952682495,1.8387469053268433
3.1184823513031006,-7.709329605102539,-1.867477297782898,1.9057846069335938
3.1195993423461914,-7.872135162353516,-1.8483237028121948,1.9153614044189453
3.120701313018799,-7.967903137207031,-1.8291701078414917,2.011129379272461
3.1228713989257812,-8.063671112060547,-1.800439715385437,2.0877439975738525
3.125217914581299,-8.226476669311523,-1.7334020137786865,2.1356279850006104
3.127408504486084,-8.293514251708984,-1.6855180263519287,2.212242364883423
3.128511905670166,-8.398859977722168,-1.6759412288665771,2.2409727573394775
3.1306817531585693,-8.542511940002441,-1.599326729774475,2.3080103397369385
3.1328673362731934,-8.638279914855957,-1.5322890281677246,2.3750481605529785
3.135024070739746,-8.686163902282715,-1.4652514457702637,2.4229321479797363
3.1361021995544434,-8.791508674621582,-1.4173674583435059,2.5665841102600098
3.138287305831909,-8.954314231872559,-1.3694833517074585,2.604891538619995
3.140453338623047,-9.08838939666748,-1.2545616626739502,2.7485435009002686
3.142591953277588,-9.136273384094238,-1.1779472827911377,2.8347349166870117
3.144759178161621,-9.2033109664917,-1.1300631761550903,2.8826189041137695
3.1469290256500244,-9.289502143859863,-1.0342950820922852,2.9688100814819336
3.1480250358581543,-9.442731857299805,-0.9864110946655273,3.07415509223938
3.150209903717041,-9.528923034667969,-0.871489405632019,3.2082302570343018
3.152414083480835,-9.576807022094727,-0.8331822156906128,3.2848446369171143
3.1546051502227783,-9.720458984375,-0.7661445140838623,3.3901896476745605
3.1557085514068604,-9.758766174316406,-0.7565677165985107,3.3901896476745605
3.157874345779419,-9.797073364257812,-0.6416460275650024,3.4572272300720215
3.1600453853607178,-9.90241813659668,-0.6129156351089478,3.4763808250427246
3.1621954441070557,-9.940725326538086,-0.545877993106842,3.4572272300720215
3.1644585132598877,-10.055646896362305,-0.4692635238170624,3.552995204925537
3.165590286254883,-10.055646896362305,-0.3926490843296051,3.5051112174987793
3.1677870750427246,-10.141838073730469,-0.3734954595565796,3.514688014984131
3.169970989227295,-10.189722061157227,-0.3256114423274994,3.5721490383148193
3.172158718109131,-10.247182846069336,-0.24899697303771973,3.552995204925537
3.1743409633636475,-10.247182846069336,-0.2298433631658554,3.552995204925537
3.1754472255706787,-10.333374977111816,-0.2298433631658554,3.600879430770874
3.1776256561279297,-10.362105369567871,-0.1149216815829277,3.533841609954834
3.1798107624053955,-10.429142951965332,-0.13407529890537262,3.552995204925537
3.181960105895996,-10.448296546936035,-0.06703764945268631,3.5242648124694824
3.184129476547241,-10.429142951965332,-0.06703764945268631,3.552995204925537
3.1852190494537354,-10.486603736877441,-0.009576806798577309,3.5625722408294678
3.187370538711548,-10.524910926818848,0.047884032130241394,3.4763808250427246
3.189521312713623,-10.563218116760254,0.028730420395731926,3.466804027557373
3.191709518432617,-10.54406452178955,0.038307227194309235,3.4572272300720215
3.1938891410827637,-10.5344877243042,0.09576806426048279,3.514688014984131
3.1949868202209473,-10.582371711730957,0.1149216815829277,3.4763808250427246
3.197159767150879,-10.572794914245605,0.15322890877723694,3.428496837615967
3.199329376220703,-10.563218116760254,0.1628057211637497,3.44765043258667
3.2015204429626465,-10.582371711730957,0.15322890877723694,3.466804027557373
3.2036752700805664,-10.611102104187012,0.17238251864910126,3.4763808250427246
3.2047502994537354,-10.563218116760254,0.12449848651885986,3.4763808250427246
3.206914186477661,-10.572794914245605,0.10534487664699554,3.4380736351013184
3.20906662940979,-10.54406452178955,0.12449848651885986,3.428496837615967
3.211230993270874,-10.524910926818848,0.10534487664699554,3.5051112174987793
3.213409662246704,-10.486603736877441,0.07661445438861847,3.4763808250427246
3.2145111560821533,-10.457873344421387,0.08619125932455063,3.4763808250427246
3.2166872024536133,-10.409989356994629,0.05746084079146385,3.514688014984131
3.2188642024993896,-10.409989356994629,0.047884032130241394,3.485957622528076
3.2210443019866943,-10.35252857208252,-0.009576806798577309,3.4572272300720215
3.2232258319854736,-10.323798179626465,-0.047884032130241394,3.4093432426452637
3.2254176139831543,-10.285490036010742,-0.09576806426048279,3.485957622528076
3.2265067100524902,-10.295066833496094,-0.15322890877723694,3.4380736351013184
3.2286598682403564,-10.228029251098633,-0.19153612852096558,3.428496837615967
3.230846643447876,-10.247182846069336,-0.26815059781074524,3.4093432426452637
3.2330474853515625,-10.15141487121582,-0.3064578175544739,3.332728862762451
3.2342588901519775,-10.113107681274414,-0.38307225704193115,3.3518824577331543
3.236461877822876,-10.122684478759766,-0.4596867263317108,3.313575267791748
3.2386605739593506,-10.036493301391602,-0.507570743560791,3.3039982318878174
3.2408463954925537,-9.979032516479492,-0.5650315880775452,3.246537446975708
3.243032217025757,-9.911994934082031,-0.689530074596405,3.2561142444610596
3.2441346645355225,-9.873687744140625,-0.7086837291717529,3.227383852005005
3.2463018894195557,-9.854534149169922,-0.8044517636299133,3.1890766620635986
