t,accel_x,accel_y,accel_z
0.17905068397521973,-8.40843677520752,-2.940079689025879,-0.15322890877723694
0.18028640747070312,-8.609549522399902,-2.853888511657715,-0.9002198576927185
0.1824665069580078,-8.418013572692871,-2.892195701599121,-0.40222588181495667
0.18464875221252441,-8.638279914855957,-2.9496564865112305,-0.7182605266571045
0.18574309349060059,-8.513781547546387,-2.9305028915405273,-0.28730419278144836
0.18791532516479492,-8.494627952575684,-2.920926094055176,-0.7852981686592102
0.19005584716796875,-8.59997272491455,-2.8826189041137695,-0.6129156351089478
0.1921989917755127,-8.494627952575684,-2.892195701599121,-0.5650315880775452
0.1943347454071045,-8.552088737487793,-2.9017724990844727,-0.43095630407333374
0.19541406631469727,-8.504204750061035,-2.9975404739379883,-0.8044517636299133
0.19759035110473633,-8.686163902282715,-2.853888511657715,-0.4405331015586853
0.19976067543029785,-8.379706382751465,-2.920926094055176,-0.5650315880775452
0.20192646980285645,-8.705317497253418,-2.9496564865112305,-0.7086837291717529
0.20413422584533691,-8.485051155090332,-2.920926094055176,-0.38307225704193115
0.20630145072937012,-8.609549522399902,-2.9017724990844727,-0.7757213711738586
0.20741009712219238,-8.389283180236816,-2.9017724990844727,-0.4213795065879822
0.209794282913208,-8.59997272491455,-2.9305028915405273,-0.6224924325942993
0.21195149421691895,-8.542511940002441,-2.806004285812378,-0.5267243981361389
0.2130286693572998,-8.465897560119629,-2.9975404739379883,-0.6607996821403503
0.2151806354522705,-8.485051155090332,-2.7964274883270264,-0.38307225704193115
0.21732616424560547,-8.65743350982666,-2.9305028915405273,-0.6129156351089478
0.21953511238098145,-8.504204750061035,-2.892195701599121,-0.545877993106842
0.2217254638671875,-8.437167167663574,-2.9688100814819336,-0.727837324142456
0.22282028198242188,-8.628703117370605,-2.806004285812378,-0.363918662071228
0.22499942779541016,-8.552088737487793,-2.959233283996582,-0.6033388376235962
0.22722816467285156,-8.446743965148926,-2.9305028915405273,-0.7852981686592102
0.22941970825195312,-8.504204750061035,-3.026270866394043,-0.40222588181495667
0.23159551620483398,-8.59997272491455,-2.8347349166870117,-0.3926490843296051
0.23269224166870117,-8.485051155090332,-2.892195701599121,-0.7469909191131592
0.23485112190246582,-8.456320762634277,-2.892195701599121,-0.727837324142456
0.23698949813842773,-8.59997272491455,-2.920926094055176,-0.26815059781074524
0.23913240432739258,-8.638279914855957,-2.8443117141723633,-0.5650315880775452
0.24126791954040527,-8.47547435760498,-3.00711727142334,-0.7469909191131592
0.24236750602722168,-8.40843677520752,-2.786850690841675,-0.7086837291717529
0.24453425407409668,-8.667010307312012,-2.911349296569824,-0.3447650372982025
0.24669408798217773,-8.494627952575684,-2.8155810832977295,-0.5650315880775452
0.2488555908203125,-8.504204750061035,-3.064578056335449,-0.9289502501487732
0.25105738639831543,-8.40843677520752,-2.7676970958709717,-0.23942017555236816
0.2532365322113037,-8.743624687194824,-2.9496564865112305,-0.4596867263317108
0.25434350967407227,-8.322244644165039,-2.8347349166870117,-0.689530074596405
0.2565286159515381,-8.647856712341309,-3.0166940689086914,-0.8140285611152649
0.2586855888366699,-8.465897560119629,-2.719813108444214,-0.05746084079146385
0.2608325481414795,-8.638279914855957,-2.978386878967285,-0.7086837291717529
0.2629983425140381,-8.427590370178223,-2.8155810832977295,-0.7469909191131592
0.264082670211792,-8.513781547546387,-2.9305028915405273,-0.6416460275650024
0.2662315368652344,-8.552088737487793,-2.873042106628418,-0.17238251864910126
0.26839113235473633,-8.561665534973145,-3.026270866394043,-0.6703764796257019
0.2708272933959961,-8.398859977722168,-2.82515811920166,-0.7565677165985107
0.27195119857788086,-8.571242332458496,-2.911349296569824,-0.5554547905921936
0.27413487434387207,-8.523358345031738,-2.8347349166870117,-0.33518823981285095
0.27631497383117676,-8.523358345031738,-2.9496564865112305,-0.8523358106613159
0.278489351272583,-8.485051155090332,-2.892195701599121,-0.6320692300796509
0.2806544303894043,-8.580819129943848,-2.8826189041137695,-0.49799394607543945
0.28174924850463867,-8.456320762634277,-2.9017724990844727,-0.40222588181495667
0.2839038372039795,-8.580819129943848,-2.9017724990844727,-0.9097966551780701
0.28607845306396484,-8.35097599029541,-2.8826189041137695,-0.4596867263317108
0.28823351860046387,-8.734047889709473,-2.920926094055176,-0.6129156351089478
0.29042506217956543,-8.370129585266113,-2.911349296569824,-0.38307225704193115
0.2915313243865967,-8.638279914855957,-2.8634653091430664,-1.0821791887283325
0.29369521141052246,-8.389283180236816,-2.940079689025879,-0.20111294090747833
0.29585719108581543,-8.53293514251709,-2.8155810832977295,-0.6416460275650024
0.29802703857421875,-8.552088737487793,-2.9305028915405273,-0.43095630407333374
0.30019426345825195,-8.53293514251709,-2.82515811920166,-0.8619126081466675
0.3012881278991699,-8.446743965148926,-2.9496564865112305,-0.5363011956214905
0.30344343185424805,-8.504204750061035,-2.8347349166870117,-0.35434186458587646
0.30559206008911133,-8.667010307312012,-2.892195701599121,-0.5554547905921936
0.3077261447906494,-8.398859977722168,-2.892195701599121,-0.9097966551780701
0.3098564147949219,-8.542511940002441,-2.920926094055176,-0.43095630407333374
0.3119978904724121,-8.485051155090332,-2.8443117141723633,-0.38307225704193115
0.31307387351989746,-8.571242332458496,-2.920926094055176,-0.7948749661445618
0.3152503967285156,-8.418013572692871,-2.8826189041137695,-0.6991068720817566
0.317429780960083,-8.571242332458496,-2.8443117141723633,-0.5363011956214905
0.31960248947143555,-8.47547435760498,-2.9688100814819336,-0.3447650372982025
0.32177257537841797,-8.504204750061035,-2.892195701599121,-0.727837324142456
0.32286858558654785,-8.504204750061035,-2.8826189041137695,-0.5650315880775452
0.32503581047058105,-8.542511940002441,-2.8634653091430664,-0.545877993106842
0.3271963596343994,-8.398859977722168,-2.9305028915405273,-0.5171475410461426
0.3293421268463135,-8.485051155090332,-2.9305028915405273,-0.7182605266571045
0.3314831256866455,-8.724471092224121,-2.8826189041137695,-0.545877993106842
0.33362364768981934,-8.418013572692871,-2.8826189041137695,-0.5650315880775452
0.3346984386444092,-8.504204750061035,-2.959233283996582,-0.7182605266571045
0.33690977096557617,-8.465897560119629,-2.892195701599121,-0.4884171485900879
0.3391149044036865,-8.705317497253418,-2.8443117141723633,-0.6703764796257019
0.34137392044067383,-8.418013572692871,-2.9496564865112305,-0.5841852426528931
0.3424971103668213,-8.504204750061035,-2.920926094055176,-0.6129156351089478
0.3446824550628662,-8.427590370178223,-2.8634653091430664,-0.2585737705230713
0.34686756134033203,-8.65743350982666,-2.892195701599121,-0.8331822156906128
0.3491206169128418,-8.360552787780762,-2.873042106628418,-0.6512228846549988
0.35021209716796875,-8.571242332458496,-2.892195701599121,-0.6703764796257019
0.35239338874816895,-8.59997272491455,-2.892195701599121,-0.38307225704193115
0.35455775260925293,-8.418013572692871,-2.9017724990844727,-0.8044517636299133
0.35671401023864746,-8.53293514251709,-2.940079689025879,-0.7469909191131592
0.35887670516967773,-8.485051155090332,-2.8347349166870117,-0.33518823981285095
0.3610553741455078,-8.619126319885254,-2.892195701599121,-0.6703764796257019
0.36216211318969727,-8.283937454223633,-3.0166940689086914,-0.6512228846549988
0.36434149742126465,-8.695740699768066,-2.8826189041137695,-0.6129156351089478
0.3665168285369873,-8.389283180236816,-2.82515811920166,-0.3447650372982025
0.3687009811401367,-8.609549522399902,-2.9305028915405273,-0.9481038451194763
0.37087440490722656,-8.255207061767578,-2.911349296569824,-0.4213795065879822
0.3719766139984131,-8.762778282165527,-2.9305028915405273,-0.7182605266571045
0.3741288185119629,-8.456320762634277,-2.873042106628418,-0.19153612852096558
0.3762655258178711,-8.504204750061035,-2.940079689025879,-1.1875240802764893
0.37841129302978516,-8.370129585266113,-2.82515811920166,-0.2968810200691223
0.38056421279907227,-8.71489429473877,-2.9688100814819336,-0.507570743560791
0.3816707134246826,-8.370129585266113,-2.853888511657715,-0.5267243981361389
0.38386964797973633,-8.504204750061035,-3.00711727142334,-0.9097966551780701
0.3860507011413574,-8.580819129943848,-2.786850690841675,-0.2968810200691223
0.3882582187652588,-8.485051155090332,-2.978386878967285,-0.5746083855628967
0.39045000076293945,-8.456320762634277,-2.873042106628418,-0.6224924325942993
0.39171409606933594,-8.580819129943848,-2.9305028915405273,-0.6799532771110535
0.3939223289489746,-8.561665534973145,-2.8155810832977295,-0.40222588181495667
0.3961305618286133,-8.465897560119629,-3.064578056335449,-0.6799532771110535
0.39722681045532227,-8.437167167663574,-2.853888511657715,-0.5746083855628967
0.3993856906890869,-8.695740699768066,-2.892195701599121,-0.4692635238170624
0.4015533924102783,-8.398859977722168,-2.7964274883270264,-0.7086837291717529
0.40370821952819824,-8.53293514251709,-3.0550012588500977,-0.6512228846549988
0.4059479236602783,-8.504204750061035,-2.7964274883270264,-0.31603461503982544
0.40815210342407227,-8.705317497253418,-2.9688100814819336,-0.7374141216278076
0.4092519283294678,-8.283937454223633,-2.8634653091430664,-0.6799532771110535
0.41161084175109863,-8.667010307312012,-2.9688100814819336,-0.6799532771110535
0.41383934020996094,-8.40843677520752,-2.8155810832977295,-0.3447650372982025
0.416062593460083,-8.59997272491455,-3.093308687210083,-0.8619126081466675
0.4171762466430664,-8.370129585266113,-2.786850690841675,-0.5841852426528931
0.41935086250305176,-8.647856712341309,-2.959233283996582,-0.6799532771110535
0.42151331901550293,-8.418013572692871,-2.911349296569824,-0.363918662071228
0.42367005348205566,-8.619126319885254,-2.9879636764526367,-0.8523358106613159
0.4247705936431885,-8.504204750061035,-2.7772738933563232,-0.49799394607543945
0.42692041397094727,-8.571242332458496,-2.9879636764526367,-0.6033388376235962
0.4290907382965088,-8.389283180236816,-2.8347349166870117,-0.5554547905921936
0.43128085136413574,-8.53293514251709,-2.9688100814819336,-0.7182605266571045
0.4334597587585449,-8.609549522399902,-2.786850690841675,-0.545877993106842
0.4356231689453125,-8.494627952575684,-2.959233283996582,-0.6607996821403503
0.43671703338623047,-8.427590370178223,-2.82515811920166,-0.6416460275650024
0.4388904571533203,-8.446743965148926,-2.978386878967285,-0.545877993106842
0.4410591125488281,-8.71489429473877,-2.8347349166870117,-0.6703764796257019
0.4432194232940674,-8.389283180236816,-2.940079689025879,-0.6129156351089478
0.44429731369018555,-8.53293514251709,-2.8443117141723633,-0.7948749661445618
0.4464294910430908,-8.561665534973145,-3.00711727142334,-0.2585737705230713
0.4485630989074707,-8.542511940002441,-2.873042106628418,-0.689530074596405
0.45069360733032227,-8.427590370178223,-2.9496564865112305,-0.6416460275650024
0.4528801441192627,-8.47547435760498,-2.8634653091430664,-0.5554547905921936
0.4550647735595703,-8.628703117370605,-2.940079689025879,-0.3734954595565796
0.4561581611633301,-8.446743965148926,-2.9017724990844727,-0.7469909191131592
0.45831942558288574,-8.494627952575684,-2.9017724990844727,-0.6224924325942993
0.46050286293029785,-8.53293514251709,-2.853888511657715,-0.40222588181495667
0.46266889572143555,-8.609549522399902,-2.853888511657715,-0.5650315880775452
0.4648900032043457,-8.389283180236816,-3.00711727142334,-0.7852981686592102
0.4659879207611084,-8.552088737487793,-2.911349296569824,-0.4692635238170624
0.4681406021118164,-8.609549522399902,-2.892195701599121,-0.4692635238170624
0.47031140327453613,-8.446743965148926,-2.8826189041137695,-0.7374141216278076
0.47246241569519043,-8.53293514251709,-2.9688100814819336,-0.7757213711738586
0.474625825881958,-8.552088737487793,-2.920926094055176,-0.26815059781074524
0.47587132453918457,-8.580819129943848,-2.873042106628418,-0.6416460275650024
0.47806239128112793,-8.303091049194336,-2.959233283996582,-0.7948749661445618
0.48027849197387695,-8.609549522399902,-2.911349296569824,-0.6033388376235962
0.482485294342041,-8.628703117370605,-2.920926094055176,-0.363918662071228
0.48358893394470215,-8.494627952575684,-2.978386878967285,-0.5937620401382446
0.48575639724731445,-8.389283180236816,-2.9305028915405273,-0.689530074596405
0.4879186153411865,-8.571242332458496,-2.806004285812378,-0.507570743560791
0.49007678031921387,-8.609549522399902,-2.9305028915405273,-0.40222588181495667
0.4922199249267578,-8.418013572692871,-2.959233283996582,-0.7661445140838623
0.4932987689971924,-8.523358345031738,-2.9305028915405273,-0.7182605266571045
0.4963095188140869,-8.485051155090332,-2.8634653091430664,-0.2585737705230713
0.4975106716156006,-8.552088737487793,-2.9017724990844727,-0.7374141216278076
0.4997105598449707,-8.437167167663574,-2.959233283996582,-0.7948749661445618
0.501899242401123,-8.619126319885254,-2.9496564865112305,-0.45010992884635925
0.5041000843048096,-8.571242332458496,-2.9017724990844727,-0.40222588181495667
0.5052151679992676,-8.446743965148926,-2.873042106628418,-0.7086837291717529
0.5074138641357422,-8.485051155090332,-2.9305028915405273,-0.6129156351089478
0.5096001625061035,-8.59997272491455,-2.8634653091430664,-0.43095630407333374
0.5117690563201904,-8.59997272491455,-2.911349296569824,-0.507570743560791
0.5128607749938965,-8.370129585266113,-2.959233283996582,-0.8140285611152649
0.5150070190429688,-8.580819129943848,-2.853888511657715,-0.6033388376235962
0.5172092914581299,-8.580819129943848,-2.9017724990844727,-0.2777273952960968
0.5193495750427246,-8.485051155090332,-2.873042106628418,-0.7852981686592102
0.5215494632720947,-8.389283180236816,-2.959233283996582,-0.7086837291717529
0.5237340927124023,-8.580819129943848,-2.82515811920166,-0.363918662071228
0.5248491764068604,-8.542511940002441,-2.873042106628418,-0.49799394607543945
0.5270264148712158,-8.437167167663574,-2.9879636764526367,-0.9385270476341248
0.529193639755249,-8.494627952575684,-2.853888511657715,-0.43095630407333374
0.5313642024993896,-8.571242332458496,-2.892195701599121,-0.3926490843296051
0.533531665802002,-8.360552787780762,-2.8347349166870117,-0.6991068720817566
0.5346250534057617,-8.53293514251709,-3.00711727142334,-0.8619126081466675
0.5367677211761475,-8.456320762634277,-2.8155810832977295,-0.2585737705230713
0.5389091968536377,-8.628703117370605,-2.959233283996582,-0.6224924325942993
0.5410823822021484,-8.47547435760498,-2.911349296569824,-0.6129156351089478
0.5432291030883789,-8.437167167663574,-2.911349296569824,-0.8906430602073669
0.5443506240844727,-8.504204750061035,-2.911349296569824,-0.2585737705230713
0.5465264320373535,-8.647856712341309,-2.920926094055176,-0.5650315880775452
0.548689603805542,-8.398859977722168,-2.911349296569824,-0.8523358106613159
0.5508522987365723,-8.513781547546387,-2.911349296569824,-0.7565677165985107
0.5530221462249756,-8.494627952575684,-2.9305028915405273,-0.12449848651885986
0.5551862716674805,-8.552088737487793,-2.8347349166870117,-0.9193734526634216
0.5562787055969238,-8.398859977722168,-2.978386878967285,-0.6703764796257019
0.5584475994110107,-8.571242332458496,-2.892195701599121,-0.5267243981361389
0.5605974197387695,-8.485051155090332,-2.9017724990844727,-0.3064578175544739
0.5627508163452148,-8.59997272491455,-2.920926094055176,-0.8427590131759644
0.5648839473724365,-8.33182144165039,-2.9017724990844727,-0.6033388376235962
0.565955400466919,-8.5903959274292,-2.853888511657715,-0.5554547905921936
0.5680890083312988,-8.667010307312012,-2.892195701599121,-0.3926490843296051
0.5702593326568604,-8.427590370178223,-2.911349296569824,-0.8236053586006165
0.5724294185638428,-8.47547435760498,-2.920926094055176,-0.7565677165985107
0.5745871067047119,-8.523358345031738,-2.8634653091430664,-0.2968810200691223
0.5767498016357422,-8.5903959274292,-2.8155810832977295,-0.5554547905921936
0.5778419971466064,-8.322244644165039,-2.9688100814819336,-0.8619126081466675
0.5800333023071289,-8.5903959274292,-2.873042106628418,-0.5267243981361389
0.5823874473571777,-8.504204750061035,-2.873042106628418,-0.26815059781074524
0.5835063457489014,-8.53293514251709,-2.892195701599121,-0.8236053586006165
0.5856785774230957,-8.26478385925293,-2.9017724990844727,-0.7661445140838623
0.5878522396087646,-8.686163902282715,-2.873042106628418,-0.4692635238170624
0.5900170803070068,-8.580819129943848,-2.8826189041137695,-0.3926490843296051
0.5921847820281982,-8.398859977722168,-3.0166940689086914,-1.0630255937576294
0.5932834148406982,-8.360552787780762,-2.82515811920166,-0.35434186458587646
0.5954487323760986,-8.753201484680176,-2.9017724990844727,-0.4884171485900879
0.5976202487945557,-8.341399192810059,-2.911349296569824,-0.5746083855628967
0.5997931957244873,-8.47547435760498,-2.892195701599121,-1.0630255937576294
0.6019642353057861,-8.638279914855957,-2.8826189041137695,-0.1628057211637497
0.6041409969329834,-8.542511940002441,-2.9017724990844727,-0.5746083855628967
0.605236291885376,-8.341399192810059,-2.9496564865112305,-0.8236053586006165
0.6074032783508301,-8.513781547546387,-2.892195701599121,-0.6607996821403503
0.6095733642578125,-8.65743350982666,-2.82515811920166,-0.3447650372982025
0.6117398738861084,-8.398859977722168,-2.9975404739379883,-0.7565677165985107
0.6128389835357666,-8.513781547546387,-2.8826189041137695,-0.7086837291717529
0.6150023937225342,-8.456320762634277,-2.892195701599121,-0.4405331015586853
0.6171667575836182,-8.53293514251709,-2.8826189041137695,-0.5267243981361389
0.6193315982818604,-8.446743965148926,-2.9305028915405273,-0.6799532771110535
0.6214933395385742,-8.619126319885254,-2.920926094055176,-0.7565677165985107
0.6236653327941895,-8.465897560119629,-2.9688100814819336,-0.26815059781074524
0.624814510345459,-8.53293514251709,-2.8634653091430664,-0.6320692300796509
0.6269845962524414,-8.485051155090332,-2.853888511657715,-0.6703764796257019
0.6291556358337402,-8.504204750061035,-2.853888511657715,-0.7374141216278076
0.6313292980194092,-8.561665534973145,-2.940079689025879,-0.4884171485900879
0.6335000991821289,-8.485051155090332,-2.8826189041137695,-0.4405331015586853
0.6345992088317871,-8.571242332458496,-2.8826189041137695,-0.8140285611152649
0.6367626190185547,-8.427590370178223,-2.8826189041137695,-0.6033388376235962
0.6389293670654297,-8.619126319885254,-2.9017724990844727,-0.3926490843296051
0.641106367111206,-8.494627952575684,-2.873042106628418,-0.6224924325942993
0.6432762145996094,-8.504204750061035,-2.9688100814819336,-0.689530074596405
0.6454470157623291,-8.47547435760498,-2.8443117141723633,-0.4213795065879822
0.646540641784668,-8.523358345031738,-2.892195701599121,-0.545877993106842
0.6487560272216797,-8.485051155090332,-2.9017724990844727,-0.6799532771110535
0.6509442329406738,-8.47547435760498,-2.978386878967285,-0.689530074596405
0.652043342590332,-8.59997272491455,-2.82515811920166,-0.43095630407333374
0.6542134284973145,-8.523358345031738,-2.9496564865112305,-0.6416460275650024
0.6563806533813477,-8.437167167663574,-2.9017724990844727,-0.7948749661445618
0.6585471630096436,-8.504204750061035,-2.978386878967285,-0.5937620401382446
0.6607158184051514,-8.504204750061035,-2.853888511657715,-0.40222588181495667
0.6618099212646484,-8.628703117370605,-2.940079689025879,-0.6416460275650024
0.6639928817749023,-8.427590370178223,-2.911349296569824,-0.689530074596405
0.6661779880523682,-8.485051155090332,-2.892195701599121,-0.5267243981361389
0.6710257530212402,-8.552088737487793,-2.911349296569824,-0.28730419278144836
0.6721451282501221,-8.53293514251709,-2.892195701599121,-0.8427590131759644
0.6732635498046875,-8.40843677520752,-2.873042106628418,-0.8523358106613159
0.6744058132171631,-8.647856712341309,-2.9975404739379883,-0.31603461503982544
0.6765944957733154,-8.552088737487793,-2.806004285812378,-0.38307225704193115
0.6777100563049316,-8.504204750061035,-3.045424461364746,-0.9959878921508789
0.6798624992370605,-8.312667846679688,-2.8155810832977295,-0.5650315880775452
0.6820282936096191,-8.676587104797363,-2.920926094055176,-0.3447650372982025
0.684194803237915,-8.504204750061035,-2.8155810832977295,-0.545877993106842
0.6863653659820557,-8.485051155090332,-3.0550012588500977,-1.0055646896362305
0.68746018409729,-8.465897560119629,-2.82515811920166,-0.35434186458587646
0.6896262168884277,-8.705317497253418,-2.892195701599121,-0.507570743560791
0.6918067932128906,-8.418013572692871,-2.873042106628418,-0.6607996821403503
0.6939704418182373,-8.513781547546387,-2.978386878967285,-1.0438719987869263
0.6961448192596436,-8.47547435760498,-2.8634653091430664,-0.17238251864910126
0.6983132362365723,-8.667010307312012,-2.9017724990844727,-0.49799394607543945
0.699408769607544,-8.293514251708984,-2.9305028915405273,-0.9481038451194763
0.7015910148620605,-8.53293514251709,-2.911349296569824,-0.6991068720817566
0.7037608623504639,-8.667010307312012,-2.892195701599121,-0.10534487664699554
0.7059288024902344,-8.47547435760498,-2.873042106628418,-0.7852981686592102
0.7070200443267822,-8.398859977722168,-2.9688100814819336,-0.9385270476341248
0.709186315536499,-8.65743350982666,-2.82515811920166,-0.38307225704193115
0.7113614082336426,-8.676587104797363,-2.892195701599121,-0.2968810200691223
0.713529109954834,-8.341399192810059,-2.940079689025879,-0.8810662031173706
0.7156987190246582,-8.494627952575684,-2.911349296569824,-0.8140285611152649
0.717864990234375,-8.676587104797363,-2.8443117141723633,-0.1628057211637497
0.7189605236053467,-8.59997272491455,-2.9017724990844727,-0.6703764796257019
0.7211298942565918,-8.236053466796875,-3.0166940689086914,-0.9385270476341248
0.7232911586761475,-8.571242332458496,-2.8634653091430664,-0.4118026793003082
0.7254633903503418,-8.65743350982666,-2.873042106628418,-0.3064578175544739
0.7276289463043213,-8.379706382751465,-2.9496564865112305,-0.9289502501487732
0.7287211418151855,-8.485051155090332,-2.9496564865112305,-0.8044517636299133
0.7308869361877441,-8.619126319885254,-2.8443117141723633,-0.23942017555236816
0.7330541610717773,-8.59997272491455,-2.8443117141723633,-0.5363011956214905
0.735215425491333,-8.341399192810059,-2.9975404739379883,-0.9289502501487732
0.7373876571655273,-8.571242332458496,-2.8443117141723633,-0.4884171485900879
0.7384839057922363,-8.5903959274292,-2.9879636764526367,-0.24899697303771973
0.7406525611877441,-8.47547435760498,-2.8634653091430664,-0.7374141216278076
0.7428295612335205,-8.427590370178223,-2.911349296569824,-0.7661445140838623
0.744992733001709,-8.638279914855957,-2.8155810832977295,-0.4405331015586853
0.7460908889770508,-8.552088737487793,-2.959233283996582,-0.3447650372982025
0.7482552528381348,-8.398859977722168,-2.940079689025879,-0.8427590131759644
0.7504177093505859,-8.580819129943848,-2.920926094055176,-0.6416460275650024
0.7525901794433594,-8.619126319885254,-2.8826189041137695,-0.4118026793003082
0.7547683715820312,-8.398859977722168,-2.9017724990844727,-0.6129156351089478
0.7569358348846436,-8.59997272491455,-2.959233283996582,-0.8236053586006165
0.7580282688140869,-8.561665534973145,-2.8826189041137695,-0.31603461503982544
0.7601938247680664,-8.5903959274292,-2.9496564865112305,-0.689530074596405
0.7623584270477295,-8.274360656738281,-2.9017724990844727,-0.49799394607543945
0.7645235061645508,-8.695740699768066,-2.8826189041137695,-0.8044517636299133
0.766693115234375,-8.485051155090332,-2.82515811920166,-0.3256114423274994
0.7677886486053467,-8.59997272491455,-2.9879636764526367,-0.8236053586006165
0.7699518203735352,-8.398859977722168,-2.8443117141723633,-0.3256114423274994
0.7721214294433594,-8.71489429473877,-2.9879636764526367,-0.7469909191131592
0.7742862701416016,-8.418013572692871,-2.853888511657715,-0.3734954595565796
0.7764520645141602,-8.638279914855957,-2.940079689025879,-0.9864110946655273
0.7775475978851318,-8.427590370178223,-2.911349296569824,-0.22026655077934265
0.7797102928161621,-8.609549522399902,-2.920926094055176,-0.7086837291717529
0.7818737030029297,-8.456320762634277,-2.9017724990844727,-0.4213795065879822
0.7840399742126465,-8.676587104797363,-2.892195701599121,-0.9193734526634216
0.7862033843994141,-8.398859977722168,-2.9305028915405273,-0.363918662071228
0.7883760929107666,-8.561665534973145,-2.9017724990844727,-0.727837324142456
0.7894680500030518,-8.523358345031738,-2.9688100814819336,-0.3447650372982025
0.7916371822357178,-8.542511940002441,-2.8443117141723633,-0.8427590131759644
0.7937843799591064,-8.504204750061035,-2.920926094055176,-0.3734954595565796
0.7959990501403809,-8.47547435760498,-2.8443117141723633,-0.5841852426528931
0.7971212863922119,-8.571242332458496,-2.959233283996582,-0.5746083855628967
0.7993016242980957,-8.494627952575684,-2.9017724990844727,-0.689530074596405
0.8014645576477051,-8.40843677520752,-2.9305028915405273,-0.35434186458587646
0.8036355972290039,-8.676587104797363,-2.8826189041137695,-0.7182605266571045
0.8058016300201416,-8.418013572692871,-2.9017724990844727,-0.363918662071228
0.8079760074615479,-8.65743350982666,-2.9496564865112305,-0.9385270476341248
0.8090715408325195,-8.293514251708984,-2.8347349166870117,-0.24899697303771973
0.8112359046936035,-8.619126319885254,-2.9688100814819336,-0.8236053586006165
0.8134112358093262,-8.370129585266113,-2.8443117141723633,-0.2968810200691223
0.8155784606933594,-8.724471092224121,-2.9496564865112305,-0.9193734526634216
0.8166730403900146,-8.437167167663574,-2.82515811920166,-0.33518823981285095
0.8188431262969971,-8.561665534973145,-3.026270866394043,-0.6320692300796509
0.8210084438323975,-8.504204750061035,-2.7964274883270264,-0.4596867263317108
0.8231725692749023,-8.5903959274292,-2.9688100814819336,-0.7661445140838623
0.8253378868103027,-8.513781547546387,-2.853888511657715,-0.5171475410461426
0.8275103569030762,-8.437167167663574,-2.9975404739379883,-0.6320692300796509
0.8286042213439941,-8.513781547546387,-2.82515811920166,-0.4118026793003082
0.8307700157165527,-8.561665534973145,-2.959233283996582,-0.8044517636299133
0.8329410552978516,-8.437167167663574,-2.873042106628418,-0.689530074596405
0.8351082801818848,-8.552088737487793,-2.9305028915405273,-0.4118026793003082
0.837277889251709,-8.580819129943848,-2.8347349166870117,-0.507570743560791
0.8383870124816895,-8.465897560119629,-2.940079689025879,-0.8044517636299133
0.8405568599700928,-8.389283180236816,-2.920926094055176,-0.545877993106842
0.842721700668335,-8.676587104797363,-2.9017724990844727,-0.363918662071228
0.8449125289916992,-8.465897560119629,-2.873042106628418,-0.6033388376235962
0.847076416015625,-8.53293514251709,-2.9496564865112305,-0.8810662031173706
0.8481957912445068,-8.437167167663574,-2.911349296569824,-0.28730419278144836
0.8503844738006592,-8.676587104797363,-2.853888511657715,-0.363918662071228
0.8525619506835938,-8.53293514251709,-2.920926094055176,-0.8236053586006165
0.8547649383544922,-8.456320762634277,-2.9688100814819336,-0.8236053586006165
0.8569374084472656,-8.494627952575684,-2.8347349166870117,-0.20111294090747833
0.8580398559570312,-8.619126319885254,-2.940079689025879,-0.507570743560791
0.8602137565612793,-8.398859977722168,-2.853888511657715,-0.8427590131759644
0.8623800277709961,-8.561665534973145,-2.9879636764526367,-0.8140285611152649
0.8645486831665039,-8.628703117370605,-2.8155810832977295,-0.12449848651885986
0.8667123317718506,-8.456320762634277,-2.9879636764526367,-0.6320692300796509
0.8678030967712402,-8.389283180236816,-2.8634653091430664,-0.7852981686592102
0.8699674606323242,-8.71489429473877,-2.8347349166870117,-0.8236053586006165
0.8721327781677246,-8.465897560119629,-2.920926094055176,-0.14365209639072418
0.8743007183074951,-8.552088737487793,-2.9496564865112305,-0.8523358106613159
0.876467227935791,-8.418013572692871,-2.920926094055176,-0.5267243981361389
0.8786396980285645,-8.619126319885254,-2.7772738933563232,-0.545877993106842
0.8797357082366943,-8.523358345031738,-3.00711727142334,-0.5554547905921936
0.8819010257720947,-8.446743965148926,-2.853888511657715,-0.7182605266571045
0.8840701580047607,-8.676587104797363,-2.940079689025879,-0.4884171485900879
0.8862330913543701,-8.523358345031738,-2.82515811920166,-0.6129156351089478
0.8873312473297119,-8.398859977722168,-2.978386878967285,-0.5746083855628967
0.8895041942596436,-8.571242332458496,-2.82515811920166,-0.5554547905921936
0.8916630744934082,-8.5903959274292,-2.9688100814819336,-0.6224924325942993
0.8938298225402832,-8.446743965148926,-2.9305028915405273,-0.689530074596405
0.8959934711456299,-8.53293514251709,-2.911349296569824,-0.363918662071228
0.8981602191925049,-8.667010307312012,-2.8155810832977295,-0.6607996821403503
0.8992607593536377,-8.389283180236816,-2.9688100814819336,-0.5746083855628967
0.9014291763305664,-8.523358345031738,-2.940079689025879,-0.7661445140838623
0.9035978317260742,-8.647856712341309,-2.873042106628418,-0.24899697303771973
0.9057679176330566,-8.523358345031738,-2.873042106628418,-0.5937620401382446
0.9079349040985107,-8.379706382751465,-2.9688100814819336,-0.8810662031173706
0.9090282917022705,-8.47547435760498,-2.873042106628418,-0.3447650372982025
0.9111959934234619,-8.753201484680176,-2.8826189041137695,-0.5267243981361389
0.9133620262145996,-8.274360656738281,-2.9496564865112305,-0.7086837291717529
0.9155313968658447,-8.619126319885254,-2.911349296569824,-0.727837324142456
0.9176933765411377,-8.47547435760498,-2.8826189041137695,-0.1628057211637497
0.9187867641448975,-8.619126319885254,-2.920926094055176,-0.7948749661445618
0.9209532737731934,-8.389283180236816,-2.920926094055176,-0.6129156351089478
0.923119306564331,-8.667010307312012,-2.873042106628418,-0.6703764796257019
0.9253077507019043,-8.542511940002441,-2.9496564865112305,-0.31603461503982544
0.9274775981903076,-8.53293514251709,-2.9305028915405273,-0.689530074596405
0.9285767078399658,-8.5903959274292,-2.920926094055176,-0.8140285611152649
0.9307653903961182,-8.456320762634277,-2.8826189041137695,-0.4213795065879822
0.932931661605835,-8.542511940002441,-2.920926094055176,-0.4692635238170624
0.9351027011871338,-8.53293514251709,-2.9305028915405273,-0.7948749661445618
0.9372689723968506,-8.59997272491455,-2.8634653091430664,-0.5841852426528931
0.9383604526519775,-8.40843677520752,-2.959233283996582,-0.47884035110473633
0.9405293464660645,-8.5903959274292,-2.9017724990844727,-0.5650315880775452
0.9427149295806885,-8.494627952575684,-2.8634653091430664,-0.6991068720817566
0.9448826313018799,-8.53293514251709,-2.892195701599121,-0.6320692300796509
0.9470596313476562,-8.552088737487793,-2.9017724990844727,-0.3734954595565796
0.9481551647186279,-8.513781547546387,-2.853888511657715,-0.5363011956214905
0.9503262042999268,-8.552088737487793,-2.9496564865112305,-0.6607996821403503
0.9524931907653809,-8.494627952575684,-2.911349296569824,-0.689530074596405
0.9546558856964111,-8.513781547546387,-2.892195701599121,-0.3256114423274994
0.9568209648132324,-8.552088737487793,-2.940079689025879,-0.8140285611152649
0.957911491394043,-8.552088737487793,-2.9688100814819336,-0.4692635238170624
0.960078239440918,-8.494627952575684,-2.853888511657715,-0.5841852426528931
0.9622461795806885,-8.513781547546387,-2.9688100814819336,-0.5171475410461426
0.9644098281860352,-8.542511940002441,-2.8347349166870117,-0.6416460275650024
0.9665780067443848,-8.609549522399902,-2.9975404739379883,-0.6033388376235962
0.9676713943481445,-8.59997272491455,-2.786850690841675,-0.5937620401382446
0.9698350429534912,-8.47547435760498,-3.0358476638793945,-0.47884035110473633
0.9720149040222168,-8.542511940002441,-2.82515811920166,-0.5267243981361389
0.9741806983947754,-8.580819129943848,-2.9688100814819336,-0.6799532771110535
0.9763526916503906,-8.47547435760498,-2.8443117141723633,-0.6129156351089478
0.9774439334869385,-8.5903959274292,-2.9879636764526367,-0.4692635238170624
0.9796085357666016,-8.552088737487793,-2.853888511657715,-0.6512228846549988
0.9818294048309326,-8.446743965148926,-2.978386878967285,-0.5267243981361389
0.9840023517608643,-8.580819129943848,-2.806004285812378,-0.7182605266571045
0.9861700534820557,-8.5903959274292,-2.940079689025879,-0.47884035110473633
0.9883337020874023,-8.494627952575684,-2.9017724990844727,-0.6129156351089478
0.9894270896911621,-8.53293514251709,-3.0166940689086914,-0.6512228846549988
0.9915966987609863,-8.465897560119629,-2.8634653091430664,-0.40222588181495667
0.9937596321105957,-8.762778282165527,-2.9017724990844727,-0.8044517636299133
0.995924711227417,-8.322244644165039,-2.959233283996582,-0.6129156351089478
0.9980981349945068,-8.619126319885254,-2.9305028915405273,-0.689530074596405
1.006429672241211,-8.40843677520752,-2.911349296569824,-0.2585737705230713
1.00754714012146,-8.71489429473877,-2.9017724990844727,-0.8906430602073669
1.008650779724121,-8.33182144165039,-2.920926094055176,-0.5267243981361389
1.0097687244415283,-8.676587104797363,-2.920926094055176,-0.6416460275650024
1.0108697414398193,-8.47547435760498,-2.920926094055176,-0.181959331035614
1.0119681358337402,-8.552088737487793,-2.959233283996582,-0.9864110946655273
1.013063907623291,-8.485051155090332,-2.8347349166870117,-0.507570743560791
1.0141568183898926,-8.571242332458496,-2.9496564865112305,-0.5554547905921936
1.0152568817138672,-7.575253963470459,-3.112462282180786,0.3926490843296051
1.0174343585968018,-8.121131896972656,-3.2178070545196533,0.7469909191131592
1.019608974456787,-7.996633529663086,-2.8826189041137695,2.4612393379211426
1.0207061767578125,-7.527369976043701,-2.9305028915405273,1.6184803247451782
1.02288818359375,-7.824251174926758,-3.1220390796661377,0.8236053586006165
1.0250556468963623,-8.686163902282715,-2.604891538619995,0.2585737705230713
1.0272321701049805,-9.96945571899414,-2.499546527862549,-1.9249382019042969
1.0294017791748047,-9.682151794433594,-2.470816135406494,-1.5610195398330688
1.0304956436157227,-10.02691650390625,-2.4612393379211426,-0.05746084079146385
1.0326666831970215,-8.78193187713623,-2.4803929328918457,1.8100165128707886
1.0348339080810547,-7.90086555480957,-2.853888511657715,2.3271639347076416
1.0370004177093506,-6.435614109039307,-2.6815059185028076,3.706224203109741
1.0391769409179688,-6.157886981964111,-2.585737943649292,4.3191399574279785
1.041346549987793,-6.45476770401001,-2.451662540435791,4.711789131164551
1.0424480438232422,-5.784391403198242,-2.3942017555236816,3.9264907836914062
1.044621467590332,-6.339846134185791,-2.145204782485962,3.227383852005005
1.046792984008789,-6.540958881378174,-1.7908629179000854,1.8483237028121948
1.0489659309387207,-6.71334171295166,-2.049436569213867,-0.6991068720817566
1.0500602722167969,-6.9240312576293945,-2.451662540435791,-2.1547815799713135
1.05222749710083,-7.2113356590271,-2.4899697303771973,-1.9536685943603516
1.054399013519287,-7.163451671600342,-2.5953147411346436,-2.63362193107605
1.0565662384033203,-6.780379295349121,-2.8826189041137695,-3.6583402156829834
1.0587506294250488,-7.33583402633667,-3.07415509223938,-4.213795185089111
1.0598468780517578,-7.450755596160889,-3.3423056602478027,-4.2329487800598145
1.062016248703003,-7.316680431365967,-3.6774938106536865,-4.405331134796143
1.0641939640045166,-7.038952827453613,-3.7158010005950928,-4.6734819412231445
1.0663633346557617,-6.943184852600098,-3.6391866207122803,-4.32871675491333
1.0685396194458008,-6.971915245056152,-3.6391866207122803,-4.108449935913086
1.0696344375610352,-6.665457725524902,-3.6104562282562256,-4.491522312164307
1.0718021392822266,-6.560112476348877,-3.3901896476745605,-4.367023944854736
1.074030876159668,-6.588842868804932,-3.19865345954895,-3.7158010005950928
1.0762007236480713,-6.1770405769348145,-2.9688100814819336,-3.361459255218506
1.078368902206421,-5.822698593139648,-2.7964274883270264,-2.9688100814819336
1.0794639587402344,-5.698200225830078,-2.5953147411346436,-2.279279947280884
1.0816316604614258,-5.468356609344482,-2.4420857429504395,-1.656787633895874
1.0838038921356201,-5.420472621917725,-2.63362193107605,-1.2641384601593018
1.0859742164611816,-5.51624059677124,-2.7293899059295654,-0.6703764796257019
1.0881431102752686,-5.430049419403076,-2.719813108444214,-0.2106897532939911
1.0892436504364014,-5.343858242034912,-2.7006595134735107,-0.20111294090747833
1.0914125442504883,-5.51624059677124,-2.6144683361053467,-0.43095630407333374
1.0935842990875244,-5.746084213256836,-2.5761611461639404,-0.45010992884635925
1.0957491397857666,-6.01423454284668,-2.691082715988159,-0.363918662071228
1.0979149341583252,-5.928043365478516,-2.75812029838562,-0.4118026793003082
1.0990147590637207,-5.7556610107421875,-2.585737943649292,-0.7469909191131592
1.1011760234832764,-5.57370138168335,-2.499546527862549,-0.7948749661445618
1.1033403873443604,-5.583278179168701,-2.5474305152893066,-0.9959878921508789
1.1055099964141846,-5.774814605712891,-2.604891538619995,-1.1875240802764893
1.107679843902588,-5.803544998168945,-2.5282769203186035,-1.359906554222107
1.1098577976226807,-5.861005783081055,-2.38462495803833,-1.455674648284912
1.110954761505127,-5.832275390625,-2.346317768096924,-1.7046716213226318
1.1131227016448975,-5.793968200683594,-2.4229321479797363,-1.8291701078414917
1.115297794342041,-5.9088897705078125,-2.5665841102600098,-1.6280571222305298
1.1174647808074951,-6.01423454284668,-2.671929121017456,-1.5131354331970215
1.1185581684112549,-5.995080947875977,-2.7006595134735107,-1.5322890281677246
1.120734691619873,-5.841852188110352,-2.75812029838562,-1.4939818382263184
1.122901439666748,-5.841852188110352,-2.7006595134735107,-1.3886369466781616
1.125072717666626,-5.861005783081055,-2.5761611461639404,-1.4077905416488647
1.1272389888763428,-5.736507415771484,-2.5282769203186035,-1.37906014919281
1.129408597946167,-5.679046630859375,-2.365471363067627,-1.3503297567367554
1.1305012702941895,-5.717353820800781,-2.1930887699127197,-1.4269442558288574
1.1326696872711182,-5.4875102043151855,-2.1164743900299072,-1.4269442558288574
1.1348426342010498,-5.420472621917725,-2.183511972427368,-1.4269442558288574
1.1370127201080322,-5.410895824432373,-2.1930887699127197,-1.4077905416488647
1.1391823291778564,-5.468356609344482,-2.279279947280884,-1.3024457693099976
1.1402826309204102,-5.39174222946167,-2.3750481605529785,-1.4077905416488647
1.1424469947814941,-5.430049419403076,-2.470816135406494,-1.4173674583435059
1.1446187496185303,-5.57370138168335,-2.4803929328918457,-1.4652514457702637
1.146784782409668,-5.544970989227295,-2.557007312774658,-1.6376339197158813
1.1489489078521729,-5.51624059677124,-2.652775526046753,-1.8100165128707886
1.1500449180603027,-5.631162166595459,-2.6815059185028076,-1.8291701078414917
1.1522102355957031,-5.65031623840332,-2.6240451335906982,-1.9057846069335938
1.1543736457824707,-5.468356609344482,-2.6144683361053467,-2.0015525817871094
1.156548023223877,-5.315127849578857,-2.5665841102600098,-1.8100165128707886
1.1621334552764893,-5.353435039520264,-2.4803929328918457,-1.7717092037200928
1.16324782371521,-5.104437828063965,-2.470816135406494,-1.599326729774475
1.164353847503662,-5.018246650695801,-2.4899697303771973,-1.4748282432556152
1.1654560565948486,-4.922478675842285,-2.4133553504943848,-1.3886369466781616
1.1665573120117188,-4.970362663269043,-2.403778553009033,-1.3503297567367554
1.167656660079956,-4.884171485900879,-2.4612393379211426,-1.292868971824646
1.1698253154754639,-4.865017890930176,-2.451662540435791,-1.3311761617660522
1.1719961166381836,-5.037400245666504,-2.4133553504943848,-1.3694833517074585
1.1741604804992676,-5.085284233093262,-2.432508945465088,-1.4460978507995605
1.1763379573822021,-5.008669853210449,-2.499546527862549,-1.522712230682373
1.1774342060089111,-5.0469770431518555,-2.451662540435791,-1.4844050407409668
1.1796073913574219,-5.104437828063965,-2.4803929328918457,-1.4173674583435059
1.1817820072174072,-4.9799394607543945,-2.499546527862549,-1.4939818382263184
1.183952808380127,-4.903325080871582,-2.4803929328918457,-1.647210717201233
1.1861252784729004,-5.008669853210449,-2.4612393379211426,-1.580173134803772
1.1872215270996094,-5.094861030578613,-2.4229321479797363,-1.6950948238372803
1.1893868446350098,-5.027823448181152,-2.4803929328918457,-1.7717092037200928
1.1915621757507324,-5.027823448181152,-2.451662540435791,-1.7908629179000854
1.1937267780303955,-5.056553840637207,-2.432508945465088,-1.8195933103561401
1.195897102355957,-5.056553840637207,-2.365471363067627,-1.9536685943603516
1.1980626583099365,-5.094861030578613,-2.365471363067627,-2.0590133666992188
1.1991567611694336,-5.161899089813232,-2.3942017555236816,-1.9153614044189453
1.201331615447998,-5.228936672210693,-2.38462495803833,-1.8291701078414917
1.2034997940063477,-5.161899089813232,-2.38462495803833,-1.742978811264038
1.2056705951690674,-5.152322292327881,-2.38462495803833,-1.7525556087493896
1.207850456237793,-5.219359874725342,-2.3080103397369385,-1.580173134803772
1.2089483737945557,-5.343858242034912,-2.231395959854126,-1.6184803247451782
1.2111196517944336,-5.315127849578857,-2.2409727573394775,-1.4748282432556152
1.2132868766784668,-5.286397457122803,-2.1356279850006104,-1.4460978507995605
1.2154526710510254,-5.343858242034912,-2.078166961669922,-1.3694833517074585
1.2176237106323242,-5.238513469696045,-2.011129379272461,-1.3120225667953491
1.218719720840454,-5.190629482269287,-2.078166961669922,-1.139639973640442
1.220898151397705,-5.1331682205200195,-1.9919757843017578,-0.9385270476341248
1.2230708599090576,-5.2480902671813965,-1.9728221893310547,-0.8619126081466675
1.225233793258667,-5.200206279754639,-1.9728221893310547,-0.9385270476341248
1.2274065017700195,-5.228936672210693,-1.9536685943603516,-0.9959878921508789
1.2285010814666748,-5.276820659637451,-1.9249382019042969,-0.8427590131759644
1.2306702136993408,-5.372588634490967,-1.9345149993896484,-0.9289502501487732
1.232844591140747,-5.276820659637451,-1.9536685943603516,-1.0534487962722778
1.2350149154663086,-5.363011837005615,-2.0015525817871094,-1.1300631761550903
1.2371892929077148,-5.39174222946167,-1.9823989868164062,-1.072602391242981
1.238283395767212,-5.430049419403076,-2.011129379272461,-1.2258312702178955
1.2404522895812988,-5.353435039520264,-2.0877439975738525,-1.1109095811843872
1.2426259517669678,-5.305551052093506,-2.049436569213867,-1.0342950820922852
1.2447938919067383,-5.228936672210693,-2.049436569213867,-0.871489405632019
1.2469699382781982,-5.20978307723999,-2.0015525817871094,-1.0438719987869263
1.2491412162780762,-5.1331682205200195,-2.0207061767578125,-1.1013327836990356
1.2502360343933105,-5.094861030578613,-2.030282974243164,-1.1109095811843872
1.252411127090454,-5.219359874725342,-2.030282974243164,-1.0821791887283325
1.2545795440673828,-5.1810526847839355,-1.9728221893310547,-1.2641384601593018
1.2567968368530273,-5.171475887298584,-2.0015525817871094,-1.3503297567367554
1.2578933238983154,-5.161899089813232,-1.9728221893310547,-1.3982137441635132
1.2600631713867188,-5.2480902671813965,-1.9536685943603516,-1.4844050407409668
1.2622382640838623,-5.219359874725342,-1.886630892753601,-1.50355863571167
1.2644057273864746,-5.238513469696045,-1.886630892753601,-1.5418659448623657
1.2665724754333496,-5.1810526847839355,-1.867477297782898,-1.4269442558288574
1.267669916152954,-5.152322292327881,-1.8387469053268433,-1.4269442558288574
1.2698380947113037,-5.085284233093262,-1.867477297782898,-1.4173674583435059
1.2720084190368652,-5.114014625549316,-1.8483237028121948,-1.455674648284912
1.2741870880126953,-5.190629482269287,-1.8387469053268433,-1.436521053314209
1.2763571739196777,-5.295974254608154,-1.7525556087493896,-1.5322890281677246
1.2785310745239258,-5.324704647064209,-1.7812861204147339,-1.599326729774475
1.2796270847320557,-5.343858242034912,-1.742978811264038,-1.5418659448623657
1.2817943096160889,-5.439626216888428,-1.6950948238372803,-1.50355863571167
1.283970594406128,-5.4875102043151855,-1.6950948238372803,-1.4460978507995605
1.286142110824585,-5.497087001800537,-1.6759412288665771,-1.4939818382263184
1.2872366905212402,-5.506663799285889,-1.6376339197158813,-1.3982137441635132
1.2894091606140137,-5.583278179168701,-1.6376339197158813,-1.2258312702178955
1.2915763854980469,-5.564124584197998,-1.6184803247451782,-0.9864110946655273
1.2937500476837158,-5.564124584197998,-1.6663644313812256,-0.8619126081466675
1.2959208488464355,-5.57370138168335,-1.647210717201233,-0.5171475410461426
1.2980964183807373,-5.669469833374023,-1.5705963373184204,-0.45010992884635925
1.299194097518921,-5.640739440917969,-1.5897499322891235,-0.4692635238170624
1.3013622760772705,-5.746084213256836,-1.522712230682373,-0.5171475410461426
1.3035340309143066,-5.861005783081055,-1.5322890281677246,-0.2968810200691223
1.3057036399841309,-5.832275390625,-1.3886369466781616,-0.2298433631658554
1.3078792095184326,-5.813121795654297,-1.4844050407409668,-0.26815059781074524
1.3089799880981445,-5.774814605712891,-1.3982137441635132,-0.19153612852096558
1.3111462593078613,-5.851428985595703,-1.37906014919281,-0.07661445438861847
1.313317060470581,-5.784391403198242,-1.37906014919281,-0.09576806426048279
1.3154850006103516,-5.793968200683594,-1.3886369466781616,-0.13407529890537262
1.3176536560058594,-5.841852188110352,-1.3982137441635132,0.0
1.318770170211792,-5.880159378051758,-1.4269442558288574,0.019153613597154617
1.3209402561187744,-5.870582580566406,-1.436521053314209,-0.17238251864910126
1.3231098651885986,-5.937620162963867,-1.4077905416488647,-0.2585737705230713
1.3252835273742676,-6.129156112670898,-1.3886369466781616,-0.43095630407333374
1.326378345489502,-6.100425720214844,-1.4077905416488647,-0.4596867263317108
1.328552484512329,-6.071695327758789,-1.4077905416488647,-0.5746083855628967
1.3307201862335205,-6.071695327758789,-1.4173674583435059,-0.4405331015586853
1.332887887954712,-6.033388137817383,-1.359906554222107,-0.33518823981285095
1.3350598812103271,-5.9088897705078125,-1.4173674583435059,-0.3926490843296051
1.3372273445129395,-5.95677375793457,-1.4077905416488647,-0.43095630407333374
1.3383190631866455,-6.033388137817383,-1.3311761617660522,-0.33518823981285095
1.3404943943023682,-6.01423454284668,-1.3982137441635132,-0.3447650372982025
1.342663049697876,-5.995080947875977,-1.3503297567367554,-0.4596867263317108
1.344839334487915,-6.100425720214844,-1.3024457693099976,-0.4884171485900879
1.347008466720581,-6.110002517700195,-1.3311761617660522,-0.38307225704193115
1.34810471534729,-6.119579315185547,-1.3215993642807007,-0.5937620401382446
1.350278615951538,-6.100425720214844,-1.3311761617660522,-0.5841852426528931
1.3524479866027832,-6.090848922729492,-1.3215993642807007,-0.35434186458587646
1.3546192646026611,-6.081272125244141,-1.359906554222107,-0.35434186458587646
1.3567850589752197,-6.119579315185547,-1.3215993642807007,-0.38307225704193115
1.357879400253296,-6.196194171905518,-1.3503297567367554,-0.38307225704193115
1.3600513935089111,-6.205770969390869,-1.3982137441635132,-0.3447650372982025
1.362217664718628,-6.244078159332275,-1.3982137441635132,-0.49799394607543945
1.3643922805786133,-6.349422931671143,-1.37906014919281,-0.4596867263317108
1.3665592670440674,-6.358999729156494,-1.4173674583435059,-0.3447650372982025
1.3676567077636719,-6.349422931671143,-1.4269442558288574,-0.3064578175544739
1.3698303699493408,-6.387730121612549,-1.4460978507995605,-0.28730419278144836
1.3720006942749023,-6.406883716583252,-1.4652514457702637,-0.14365209639072418
1.3741710186004639,-6.473921298980713,-1.455674648284912,-0.14365209639072418
1.3763401508331299,-6.512228488922119,-1.4460978507995605,-0.1149216815829277
1.3774347305297852,-6.627150535583496,-1.4844050407409668,-0.06703764945268631
1.3796041011810303,-6.665457725524902,-1.4748282432556152,-0.05746084079146385
1.3817696571350098,-6.646304130554199,-1.4269442558288574,-0.019153613597154617
1.3839356899261475,-6.732495307922363,-1.4173674583435059,0.1149216815829277
1.3861048221588135,-6.665457725524902,-1.4652514457702637,0.2777273952960968
1.3882722854614258,-6.665457725524902,-1.3982137441635132,0.3256114423274994
1.3894076347351074,-6.57926607131958,-1.37906014919281,0.4884171485900879
1.3915786743164062,-6.617573261260986,-1.3694833517074585,0.5650315880775452
1.393744707107544,-6.665457725524902,-1.3311761617660522,0.47884035110473633
1.3959200382232666,-6.761225700378418,-1.37906014919281,0.5650315880775452
1.3970160484313965,-6.8378400802612305,-1.3407529592514038,0.6320692300796509
1.3991844654083252,-6.89530086517334,-1.3503297567367554,0.47884035110473633
1.401357889175415,-6.914454460144043,-1.3407529592514038,0.5267243981361389
1.4035227298736572,-6.904877662658691,-1.3503297567367554,0.6703764796257019
1.4056942462921143,-6.914454460144043,-1.3215993642807007,0.727837324142456
1.4078624248504639,-6.914454460144043,-1.3982137441635132,0.8044517636299133
1.4089570045471191,-6.971915245056152,-1.4173674583435059,0.8523358106613159
1.4111318588256836,-6.9910688400268555,-1.359906554222107,0.7565677165985107
1.4132990837097168,-7.086836814880371,-1.3886369466781616,0.689530074596405
1.4154748916625977,-7.2113356590271,-1.455674648284912,0.6320692300796509
1.417642593383789,-7.2783732414245605,-1.4077905416488647,0.5171475410461426
1.4187493324279785,-7.33583402633667,-1.4844050407409668,0.49799394607543945
1.4209237098693848,-7.364564418792725,-1.5610195398330688,0.6799532771110535
1.4230906963348389,-7.230489253997803,-1.5131354331970215,0.7661445140838623
1.4252607822418213,-7.182605266571045,-1.5514427423477173,0.9864110946655273
1.4263534545898438,-7.15387487411499,-1.5514427423477173,1.0821791887283325
1.428520917892456,-7.096413612365723,-1.4844050407409668,1.0534487962722778
1.430692195892334,-7.182605266571045,-1.5514427423477173,1.015141487121582
1.4328606128692627,-7.259219646453857,-1.5418659448623657,0.8331822156906128
1.4350292682647705,-7.297526836395264,-1.5418659448623657,0.7086837291717529
1.4372053146362305,-7.450755596160889,-1.6280571222305298,0.7948749661445618
1.438300609588623,-7.374141216278076,-1.6184803247451782,0.7469909191131592
1.4404780864715576,-7.364564418792725,-1.6663644313812256,0.8236053586006165
1.4426465034484863,-7.354987621307373,-1.7046716213226318,0.9768342971801758
1.444814682006836,-7.268796443939209,-1.723825216293335,0.8619126081466675
1.4469866752624512,-7.364564418792725,-1.742978811264038,0.9385270476341248
1.4480805397033691,-7.441178798675537,-1.8387469053268433,1.0055646896362305
1.4502499103546143,-7.393294811248779,-1.8291701078414917,0.871489405632019
1.4524216651916504,-7.536946773529053,-1.9153614044189453,0.8906430602073669
1.4545869827270508,-7.508216381072998,-1.8962076902389526,0.8619126081466675
1.4567604064941406,-7.489062786102295,-1.8962076902389526,0.7565677165985107
1.4578561782836914,-7.642292022705078,-1.9345149993896484,0.7661445140838623
1.4600255489349365,-7.603984832763672,-1.944091796875,0.871489405632019
1.4622011184692383,-7.690176010131836,-1.9249382019042969,0.9672574996948242
1.4643688201904297,-7.6997528076171875,-1.9632453918457031,1.0630255937576294
1.4665417671203613,-7.65186882019043,-1.9823989868164062,1.1109095811843872
1.4676382541656494,-7.757213592529297,-2.0877439975738525,1.1875240802764893
1.4698054790496826,-7.795520782470703,-2.0877439975738525,1.3407529592514038
1.471980333328247,-7.7763671875,-2.0590133666992188,1.2832920551300049
1.4741482734680176,-7.881711959838867,-2.1356279850006104,1.4269442558288574
1.4763202667236328,-7.872135162353516,-2.097320795059204,1.5131354331970215
1.477414846420288,-7.8529815673828125,-2.0685901641845703,1.4939818382263184
1.479583501815796,-7.967903137207031,-2.1164743900299072,1.4460978507995605
1.481757402420044,-7.939172744750977,-2.126051187515259,1.5418659448623657
1.4839270114898682,-8.034940719604492,-2.1739351749420166,1.6184803247451782
1.4860949516296387,-8.015787124633789,-2.2601263523101807,1.800439715385437
1.4882667064666748,-7.987056732177734,-2.2218191623687744,1.7621324062347412
1.4893605709075928,-8.14028549194336,-2.298433542251587,1.7812861204147339
1.4915275573730469,-8.14028549194336,-2.31758713722229,1.7142484188079834
1.4937102794647217,-8.245630264282227,-2.3367409706115723,1.5322890281677246
1.4958775043487549,-8.398859977722168,-2.3367409706115723,1.5131354331970215
1.4969775676727295,-8.418013572692871,-2.3942017555236816,1.4844050407409668
1.4991462230682373,-8.40843677520752,-2.4420857429504395,1.7525556087493896
1.5013127326965332,-8.33182144165039,-2.5091233253479004,2.030282974243164
1.5034899711608887,-8.245630264282227,-2.470816135406494,2.0590133666992188
1.5056602954864502,-8.26478385925293,-2.499546527862549,2.1356279850006104
1.507843255996704,-8.188169479370117,-2.5091233253479004,2.030282974243164
1.5089397430419922,-8.35097599029541,-2.432508945465088,1.9345149993896484
1.511110544204712,-8.40843677520752,-2.518700122833252,1.944091796875
1.5132853984832764,-8.437167167663574,-2.537853717803955,2.011129379272461
1.5154554843902588,-8.341399192810059,-2.585737943649292,2.1739351749420166
1.5165505409240723,-8.197746276855469,-2.5761611461639404,2.279279947280884
1.5187244415283203,-8.169015884399414,-2.652775526046753,2.3271639347076416
1.5209052562713623,-8.169015884399414,-2.63362193107605,2.3271639347076416
1.5230772495269775,-8.245630264282227,-2.63362193107605,2.1547815799713135
1.5252447128295898,-8.379706382751465,-2.6815059185028076,2.0398597717285156
1.527421474456787,-8.504204750061035,-2.719813108444214,1.8962076902389526
1.528519868850708,-8.523358345031738,-2.8826189041137695,1.9153614044189453
1.5306885242462158,-8.504204750061035,-2.9496564865112305,1.9823989868164062
1.5328657627105713,-8.446743965148926,-2.9975404739379883,2.1068975925445557
1.5350351333618164,-8.360552787780762,-3.045424461364746,2.1547815799713135
1.5361309051513672,-8.303091049194336,-2.9496564865112305,2.0398597717285156
1.538304090499878,-8.418013572692871,-2.9496564865112305,1.8770540952682495
1.5404741764068604,-8.504204750061035,-2.940079689025879,1.7142484188079834
1.5426392555236816,-8.542511940002441,-2.9975404739379883,1.7717092037200928
1.5448122024536133,-8.619126319885254,-3.1507694721221924,1.9249382019042969
1.546980619430542,-8.619126319885254,-3.1890766620635986,1.9345149993896484
1.548079252243042,-8.485051155090332,-3.19865345954895,2.0207061767578125
1.5502479076385498,-8.485051155090332,-3.1699230670928955,2.0207061767578125
1.552417516708374,-8.53293514251709,-3.1316158771514893,1.944091796875
1.554593801498413,-8.65743350982666,-3.160346269607544,1.9153614044189453
1.556764841079712,-8.724471092224121,-3.227383852005005,2.0015525817871094
1.557858943939209,-8.724471092224121,-3.3039982318878174,2.1356279850006104
1.5600316524505615,-8.762778282165527,-3.332728862762451,2.2218191623687744
1.5621976852416992,-8.705317497253418,-3.3901896476745605,2.231395959854126
1.5643701553344727,-8.753201484680176,-3.380612850189209,2.212242364883423
1.5665357112884521,-8.78193187713623,-3.4093432426452637,2.2409727573394775
1.5676302909851074,-8.801085472106934,-3.361459255218506,2.3367409706115723
1.5698018074035645,-8.848969459533691,-3.3901896476745605,2.3558945655822754
1.5719685554504395,-8.848969459533691,-3.380612850189209,2.4612393379211426
1.5741403102874756,-8.858546257019043,-3.4093432426452637,2.470816135406494
1.5763115882873535,-8.89685344696045,-3.428496837615967,2.537853717803955
1.5774061679840088,-8.916007041931152,-3.466804027557373,2.5761611461639404
1.5795812606811523,-8.83939266204834,-3.5051112174987793,2.652775526046753
1.5817480087280273,-8.868123054504395,-3.4189200401306152,2.7102363109588623
1.583920955657959,-8.78193187713623,-3.485957622528076,2.873042106628418
1.586085319519043,-8.810662269592285,-3.4763808250427246,2.8826189041137695
1.58717942237854,-8.829815864562988,-3.514688014984131,2.8826189041137695
1.5893449783325195,-8.916007041931152,-3.514688014984131,2.738966703414917
1.5915110111236572,-8.954314231872559,-3.533841609954834,2.585737943649292
1.5936744213104248,-9.050082206726074,-3.552995204925537,2.537853717803955
1.5958478450775146,-9.02135181427002,-3.581725835800171,2.6240451335906982
1.598015308380127,-9.002198219299316,-3.648763418197632,2.738966703414917
1.5991184711456299,-8.916007041931152,-3.6583402156829834,2.7964274883270264
1.6012871265411377,-8.877699851989746,-3.667917013168335,2.738966703414917
1.603454828262329,-8.916007041931152,-3.648763418197632,2.6815059185028076
1.605625867843628,-9.040505409240723,-3.687070608139038,2.518700122833252
1.6067187786102295,-9.117119789123535,-3.754108190536499,2.4899697303771973
1.6088862419128418,-9.136273384094238,-3.7636849880218506,2.6431987285614014
1.6110622882843018,-9.069235801696777,-3.8594532012939453,2.873042106628418
1.6132280826568604,-8.983044624328613,-3.8594532012939453,2.82515811920166
1.6153995990753174,-8.983044624328613,-3.8594532012939453,2.7293899059295654
1.6175646781921387,-9.059659004211426,-3.840299606323242,2.6144683361053467
1.618659257888794,-9.107542991638184,-3.8307228088378906,2.5474305152893066
1.6208322048187256,-9.222464561462402,-3.840299606323242,2.499546527862549
1.6230015754699707,-9.136273384094238,-3.88818359375,2.7293899059295654
1.6251757144927979,-9.155426979064941,-3.936067581176758,2.8634653091430664
1.6273434162139893,-9.030928611755371,-3.993528366088867,3.0358476638793945
1.6284401416778564,-9.011775016784668,-3.9839515686035156,2.978386878967285
1.6306109428405762,-9.059659004211426,-3.9456443786621094,2.940079689025879
1.6327793598175049,-9.059659004211426,-3.821146011352539,2.82515811920166
1.634948968887329,-9.174580574035645,-3.840299606323242,2.7485435009002686
1.6371140480041504,-9.14585018157959,-3.88818359375,2.892195701599121
1.638206958770752,-9.117119789123535,-3.907337188720703,3.0358476638793945
1.6403777599334717,-9.050082206726074,-3.9456443786621094,3.1028854846954346
1.6425437927246094,-9.050082206726074,-3.9647979736328125,3.026270866394043
1.6447129249572754,-8.992621421813965,-3.8977603912353516,2.9017724990844727
1.6468851566314697,-9.136273384094238,-3.8115692138671875,2.8347349166870117
1.6515824794769287,-9.184157371520996,-3.8594532012939453,2.9017724990844727
1.6527032852172852,-9.174580574035645,-3.936067581176758,2.9975404739379883
1.6538031101226807,-9.155426979064941,-3.936067581176758,3.093308687210083
1.6549010276794434,-9.08838939666748,-3.936067581176758,3.112462282180786
1.6560041904449463,-9.117119789123535,-3.955221176147461,2.978386878967285
1.658172369003296,-9.136273384094238,-3.9169139862060547,2.873042106628418
1.6603374481201172,-9.241618156433105,-3.869029998779297,2.892195701599121
1.6625068187713623,-9.241618156433105,-3.88818359375,2.9975404739379883
1.6636054515838623,-9.251194953918457,-3.936067581176758,2.940079689025879
1.665781021118164,-9.136273384094238,-3.8977603912353516,3.1028854846954346
1.667952060699463,-9.2033109664917,-3.955221176147461,2.9496564865112305
1.670121192932129,-9.193734169006348,-3.907337188720703,3.064578056335449
1.6722955703735352,-9.155426979064941,-3.9456443786621094,3.064578056335449
1.6744635105133057,-9.14585018157959,-3.8786067962646484,3.227383852005005
1.6755588054656982,-9.078812599182129,-3.907337188720703,3.265691041946411
1.6777329444885254,-9.059659004211426,-3.8977603912353516,3.265691041946411
1.679901361465454,-9.117119789123535,-3.9264907836914062,3.093308687210083
1.682077407836914,-9.251194953918457,-3.8977603912353516,2.9496564865112305
1.6842467784881592,-9.2033109664917,-3.9169139862060547,2.9496564865112305
1.6853423118591309,-9.289502143859863,-3.907337188720703,2.9305028915405273
1.6875147819519043,-9.251194953918457,-3.9169139862060547,3.1316158771514893
1.6896800994873047,-9.21288776397705,-3.907337188720703,3.064578056335449
1.6918542385101318,-9.165003776550293,-3.8115692138671875,3.0166940689086914
1.6940205097198486,-9.232041358947754,-3.8786067962646484,2.8634653091430664
1.6951169967651367,-9.21288776397705,-3.8786067962646484,3.0166940689086914
1.697291612625122,-9.21288776397705,-3.869029998779297,3.045424461364746
1.699460506439209,-9.117119789123535,-3.869029998779297,3.361459255218506
1.7016324996948242,-9.08838939666748,-3.9456443786621094,3.4763808250427246
1.7037999629974365,-8.935160636901855,-3.840299606323242,3.514688014984131
1.7048933506011963,-8.944737434387207,-3.821146011352539,3.1699230670928955
1.7070631980895996,-9.02135181427002,-3.7158010005950928,3.112462282180786
1.709228515625,-9.155426979064941,-3.773261785507202,3.0358476638793945
1.711395502090454,-9.08838939666748,-3.7828385829925537,3.2178070545196533
1.7135701179504395,-9.097966194152832,-3.821146011352539,3.3710360527038574
1.714665174484253,-8.992621421813965,-3.754108190536499,3.4380736351013184
1.71683931350708,-8.916007041931152,-3.773261785507202,3.1890766620635986
1.7190072536468506,-8.96389102935791,-3.7158010005950928,3.064578056335449
1.721172571182251,-9.08838939666748,-3.773261785507202,2.8347349166870117
1.7233450412750244,-9.165003776550293,-3.706224203109741,2.9975404739379883
1.7244417667388916,-9.14585018157959,-3.840299606323242,3.19865345954895
1.726609230041504,-8.954314231872559,-3.7924153804779053,3.3423056602478027
1.7287817001342773,-8.916007041931152,-3.801992416381836,3.2178070545196533
1.730947494506836,-8.9064302444458,-3.7158010005950928,3.0837318897247314
1.7332100868225098,-9.002198219299316,-3.7253777980804443,2.75812029838562
1.734304428100586,-9.136273384094238,-3.648763418197632,2.8443117141723633
1.7364730834960938,-9.059659004211426,-3.7253777980804443,3.00711727142334
1.7386488914489746,-9.107542991638184,-3.773261785507202,3.141192674636841
1.7408170700073242,-9.050082206726074,-3.7828385829925537,3.227383852005005
1.7429907321929932,-9.069235801696777,-3.7828385829925537,3.0166940689086914
1.7440898418426514,-9.030928611755371,-3.7445313930511475,2.9975404739379883
1.74625825881958,-9.232041358947754,-3.7445313930511475,2.911349296569824
1.7484328746795654,-9.14585018157959,-3.6966474056243896,3.1699230670928955
1.7505989074707031,-9.165003776550293,-3.734954595565796,3.246537446975708
1.7527885437011719,-9.069235801696777,-3.706224203109741,3.5242648124694824
1.7538831233978271,-9.040505409240723,-3.6774938106536865,3.380612850189209
1.7560524940490723,-9.040505409240723,-3.648763418197632,3.399766445159912
1.7582244873046875,-9.136273384094238,-3.581725835800171,3.380612850189209
1.7603950500488281,-9.040505409240723,-3.514688014984131,3.667917013168335
1.7625651359558105,-8.992621421813965,-3.466804027557373,3.6774938106536865
1.7636680603027344,-8.810662269592285,-3.44765043258667,3.773261785507202
1.7658352851867676,-8.810662269592285,-3.4763808250427246,3.687070608139038
1.7680082321166992,-8.916007041931152,-3.4380736351013184,3.5913026332855225
1.7701740264892578,-9.030928611755371,-3.466804027557373,3.4572272300720215
1.772343397140503,-9.050082206726074,-3.5051112174987793,3.581725835800171
1.7734439373016357,-8.983044624328613,-3.466804027557373,3.6966474056243896
1.77561616897583,-8.944737434387207,-3.466804027557373,3.6583402156829834
1.7777819633483887,-8.848969459533691,-3.44765043258667,3.5051112174987793
1.779954433441162,-9.002198219299316,-3.4380736351013184,3.19865345954895
1.7821221351623535,-9.08838939666748,-3.399766445159912,3.1507694721221924
1.7833023071289062,-9.136273384094238,-3.4093432426452637,3.0358476638793945
1.7854721546173096,-8.973467826843262,-3.380612850189209,3.4380736351013184
1.7876415252685547,-8.829815864562988,-3.4189200401306152,3.620033025741577
1.78981351852417,-8.619126319885254,-3.380612850189209,3.734954595565796
1.7919914722442627,-8.619126319885254,-3.3039982318878174,3.380612850189209
1.7930881977081299,-8.628703117370605,-3.246537446975708,3.2369606494903564
1.795262098312378,-8.83939266204834,-3.3518824577331543,3.0166940689086914
1.797429084777832,-8.887276649475098,-3.3423056602478027,3.160346269607544
1.7996022701263428,-8.820239067077637,-3.4380736351013184,3.361459255218506
1.8017699718475342,-8.695740699768066,-3.3518824577331543,3.466804027557373
1.8028664588928223,-8.59997272491455,-3.44765043258667,3.3039982318878174
1.8050401210784912,-8.686163902282715,-3.3518824577331543,2.9305028915405273
1.8072123527526855,-8.820239067077637,-3.3710360527038574,2.5761611461639404
1.809386968612671,-9.050082206726074,-3.3423056602478027,2.6815059185028076
1.8115568161010742,-8.983044624328613,-3.399766445159912,2.9688100814819336
1.812652349472046,-8.829815864562988,-3.466804027557373,3.112462282180786
1.8148252964019775,-8.724471092224121,-3.44765043258667,3.3231520652770996
1.816990613937378,-8.686163902282715,-3.3901896476745605,3.160346269607544
1.8191633224487305,-8.667010307312012,-3.3710360527038574,3.1028854846954346
1.8213295936584473,-8.753201484680176,-3.3039982318878174,3.1028854846954346
1.8224241733551025,-8.753201484680176,-3.2561142444610596,3.380612850189209
1.8245949745178223,-8.695740699768066,-3.294421434402466,3.648763418197632
1.82676100730896,-8.609549522399902,-3.2082302570343018,3.706224203109741
1.828927755355835,-8.571242332458496,-3.2082302570343018,3.6966474056243896
1.8311059474945068,-8.5903959274292,-3.19865345954895,3.667917013168335
1.8322014808654785,-8.724471092224121,-3.2082302570343018,3.5242648124694824
1.8343687057495117,-8.65743350982666,-3.093308687210083,3.600879430770874
1.8365437984466553,-8.71489429473877,-3.093308687210083,3.6583402156829834
1.8387084007263184,-8.638279914855957,-3.093308687210083,3.7828385829925537
1.8408799171447754,-8.667010307312012,-3.1890766620635986,3.6583402156829834
1.8419747352600098,-8.705317497253418,-3.141192674636841,3.6104562282562256
1.8441429138183594,-8.676587104797363,-3.160346269607544,3.5625722408294678
1.8463160991668701,-8.734047889709473,-3.093308687210083,3.5913026332855225
1.8484842777252197,-8.65743350982666,-3.07415509223938,3.6966474056243896
1.8506569862365723,-8.580819129943848,-2.9879636764526367,3.6583402156829834
1.852827787399292,-8.628703117370605,-3.093308687210083,3.485957622528076
1.8539235591888428,-8.65743350982666,-3.093308687210083,3.3231520652770996
1.85610032081604,-8.734047889709473,-3.1316158771514893,3.1890766620635986
1.858267068862915,-8.9064302444458,-3.1316158771514893,3.246537446975708
1.8604400157928467,-8.762778282165527,-3.1507694721221924,3.3901896476745605
1.8626081943511963,-8.705317497253418,-3.112462282180786,3.514688014984131
1.8637034893035889,-8.571242332458496,-3.141192674636841,3.552995204925537
1.8658764362335205,-8.552088737487793,-3.1699230670928955,3.294421434402466
1.868042230606079,-8.71489429473877,-3.1507694721221924,3.179499864578247
1.8702096939086914,-8.820239067077637,-3.093308687210083,3.0550012588500977
1.8723886013031006,-8.810662269592285,-3.1699230670928955,3.3039982318878174
1.873483419418335,-8.724471092224121,-3.1316158771514893,3.5051112174987793
1.8756601810455322,-8.628703117370605,-3.064578056335449,3.667917013168335
1.8778293132781982,-8.552088737487793,-3.064578056335449,3.5913026332855225
1.8799982070922852,-8.513781547546387,-2.978386878967285,3.4093432426452637
1.882171869277954,-8.542511940002441,-2.9688100814819336,3.332728862762451
1.8832674026489258,-8.638279914855957,-2.9975404739379883,3.4955344200134277
1.885434865951538,-8.65743350982666,-3.0358476638793945,3.6296098232269287
1.8876080513000488,-8.580819129943848,-3.0358476638793945,3.7924153804779053
1.8897740840911865,-8.513781547546387,-3.064578056335449,3.955221176147461
1.891944169998169,-8.40843677520752,-3.00711727142334,3.801992416381836
1.893040418624878,-8.427590370178223,-2.9305028915405273,3.5721490383148193
1.895207405090332,-8.504204750061035,-2.920926094055176,3.4380736351013184
1.89738130569458,-8.59997272491455,-2.911349296569824,3.4763808250427246
1.8995516300201416,-8.619126319885254,-2.9496564865112305,3.6583402156829834
1.9017276763916016,-8.628703117370605,-3.0166940689086914,3.667917013168335
1.9028253555297852,-8.53293514251709,-3.00711727142334,3.706224203109741
1.9049932956695557,-8.513781547546387,-3.0166940689086914,3.5913026332855225
1.9071671962738037,-8.456320762634277,-2.959233283996582,3.4955344200134277
1.9093341827392578,-8.561665534973145,-2.8826189041137695,3.44765043258667
1.9115731716156006,-8.523358345031738,-2.8634653091430664,3.6583402156829834
1.9126806259155273,-8.465897560119629,-2.940079689025879,3.821146011352539
1.9148809909820557,-8.418013572692871,-2.959233283996582,3.8498764038085938
1.9170541763305664,-8.40843677520752,-2.911349296569824,3.6774938106536865
1.9192204475402832,-8.465897560119629,-2.873042106628418,3.5625722408294678
1.9213900566101074,-8.47547435760498,-2.806004285812378,3.428496837615967
1.9224843978881836,-9.222464561462402,-2.3271639347076416,2.8347349166870117
1.9246604442596436,-9.260771751403809,-3.620033025741577,1.5897499322891235
1.9268379211425781,-12.842497825622559,-1.5897499322891235,-0.6320692300796509
1.9290053844451904,-2.097320795059204,-2.557007312774658,4.3861775398254395
1.9311721324920654,0.14365209639072418,-4.338293552398682,17.37232780456543
1.9322781562805176,-5.65031623840332,0.5171475410461426,10.572794914245605
1.9344477653503418,-3.907337188720703,-1.1109095811843872,-5.928043365478516
1.9366185665130615,-15.820884704589844,-3.4189200401306152,-4.185064792633057
1.9387860298156738,-12.631808280944824,-4.252102375030518,2.31758713722229
1.9409575462341309,-9.710882186889648,-4.568136692047119,2.231395959854126
1.9431321620941162,-10.678139686584473,-5.736507415771484,0.35434186458587646
1.9442291259765625,-10.448296546936035,-3.141192674636841,-7.105990409851074
1.9464011192321777,-13.445837020874023,-5.803544998168945,-1.6759412288665771
1.9485788345336914,-17.056293487548828,-7.95832633972168,1.8962076902389526
1.9507622718811035,-15.207969665527344,-6.71334171295166,2.7102363109588623
1.951859712600708,-15.974113464355469,-5.4013190269470215,-1.158793568611145
1.9540441036224365,-12.995726585388184,-3.9647979736328125,1.7908629179000854
1.9562129974365234,-10.093954086303711,-4.692635536193848,3.6296098232269287
1.958385705947876,-9.864110946655273,-5.669469833374023,11.60708999633789
1.9605531692504883,-10.055646896362305,-5.152322292327881,12.698845863342285
1.961646556854248,-11.549629211425781,-2.557007312774658,8.322244644165039
1.963829755783081,-10.611102104187012,-1.4269442558288574,4.07014274597168
1.9659996032714844,-11.348516464233398,-1.4652514457702637,5.726930618286133
1.9681730270385742,-12.36365795135498,-2.250549554824829,7.15387487411499
1.9703402519226074,-12.966996192932129,-3.2178070545196533,8.121131896972656
1.9725146293640137,-14.317326545715332,-4.194641590118408,7.967903137207031
1.97361159324646,-13.206416130065918,-3.9169139862060547,7.3454108238220215
1.9757816791534424,-13.139378547668457,-4.616020679473877,7.4316020011901855
1.9779527187347412,-15.313314437866211,-5.056553840637207,6.675034523010254
1.9801216125488281,-16.41464614868164,-5.085284233093262,6.531382083892822
1.981215476989746,-18.282123565673828,-5.746084213256836,6.339846134185791
1.9833900928497314,-17.477672576904297,-5.372588634490967,6.7708024978637695
1.9855570793151855,-15.782577514648438,-4.692635536193848,5.937620162963867
1.9877290725708008,-15.926229476928711,-4.299986362457275,6.598419666290283
1.9898972511291504,-15.361198425292969,-4.299986362457275,7.508216381072998
1.990994930267334,-15.686809539794922,-4.874594688415527,9.873687744140625
1.993168830871582,-15.696386337280273,-5.066130638122559,11.243170738220215
1.9953393936157227,-14.288596153259277,-3.869029998779297,10.649409294128418
1.9975056648254395,-13.752294540405273,-2.9496564865112305,9.251194953918457
1.9996821880340576,-13.35964584350586,-2.7102363109588623,9.308655738830566
2.000776529312134,-14.077905654907227,-3.361459255218506,10.620678901672363
2.002950429916382,-15.878345489501953,-3.7253777980804443,9.96945571899414
2.0051169395446777,-15.227123260498047,-3.5913026332855225,7.977479934692383
2.0072808265686035,-14.652514457702637,-3.5913026332855225,7.2783732414245605
2.009450912475586,-14.575900077819824,-3.801992416381836,8.092401504516602
2.0105457305908203,-15.064316749572754,-4.462791919708252,7.556100368499756
2.012712240219116,-16.309301376342773,-5.363011837005615,6.531382083892822
2.014885187149048,-16.22311019897461,-5.602431774139404,6.617573261260986
2.0170512199401855,-15.600618362426758,-5.525817394256592,7.661445617675781
2.019225835800171,-15.006855964660645,-5.1810526847839355,6.866570472717285
2.021392345428467,-14.451401710510254,-4.836287498474121,5.037400245666504
2.0224857330322266,-15.504850387573242,-5.114014625549316,4.481945514678955
2.0246589183807373,-15.974113464355469,-5.544970989227295,5.257667064666748
2.026825428009033,-15.533580780029297,-5.659893035888672,5.2480902671813965
2.028995990753174,-15.342044830322266,-4.970362663269043,4.51067590713501
2.0300886631011963,-14.872780799865723,-4.108449935913086,3.5721490383148193
2.032254695892334,-14.700398445129395,-3.955221176147461,3.3039982318878174
2.034423589706421,-14.786589622497559,-4.520252704620361,4.76924991607666
2.0365915298461914,-15.073893547058105,-4.807557106018066,6.215347766876221
2.0388333797454834,-15.054739952087402,-4.548983097076416,5.995080947875977
2.0410056114196777,-14.844050407409668,-4.32871675491333,5.066130638122559
2.0421040058135986,-14.882357597351074,-4.424484729766846,5.315127849578857
2.044278621673584,-15.150507926940918,-4.76924991607666,6.531382083892822
2.046444892883301,-15.294160842895508,-5.123591423034668,7.623138427734375
2.0486104488372803,-15.322891235351562,-4.989516258239746,7.565677165985107
2.0507843494415283,-15.37077522277832,-4.568136692047119,7.058106422424316
2.0518791675567627,-15.485696792602539,-4.347870349884033,6.493074893951416
2.0540459156036377,-15.638925552368164,-4.395754337310791,6.617573261260986
2.056217908859253,-15.897499084472656,-4.4723687171936035,7.010222434997559
2.0583837032318115,-16.021997451782227,-4.414907932281494,7.383718013763428
2.0605554580688477,-15.705963134765625,-4.165910720825195,7.2783732414245605
2.0616514682769775,-15.313314437866211,-3.840299606323242,6.799532890319824
2.063836097717285,-15.121777534484863,-3.5051112174987793,6.675034523010254
2.066011905670166,-15.0355863571167,-3.2848446369171143,7.096413612365723
2.068181276321411,-15.093047142028809,-3.2178070545196533,7.690176010131836
2.0703539848327637,-14.748282432556152,-2.9975404739379883,7.891288757324219
2.07145094871521,-14.211980819702148,-2.7006595134735107,7.489062786102295
2.0736193656921387,-13.848062515258789,-2.3367409706115723,6.962338447570801
2.0757899284362793,-13.694833755493164,-2.212242364883423,6.962338447570801
2.077956438064575,-13.85763931274414,-2.3080103397369385,7.354987621307373
2.0801267623901367,-13.991714477539062,-2.365471363067627,7.450755596160889
2.081221103668213,-13.828908920288086,-2.2218191623687744,6.732495307922363
2.0833892822265625,-13.685256958007812,-2.049436569213867,5.975927352905273
2.0855629444122314,-13.656526565551758,-2.0590133666992188,5.736507415771484
2.0877327919006348,-13.800178527832031,-2.403778553009033,6.14831018447876
2.089926242828369,-13.943830490112305,-2.63362193107605,6.378153324127197
2.091024398803711,-13.85763931274414,-2.5282769203186035,6.14831018447876
2.0931923389434814,-13.646949768066406,-2.2409727573394775,5.592854976654053
2.0953686237335205,-13.369222640991211,-2.1164743900299072,5.315127849578857
2.0975372791290283,-13.397953033447266,-2.279279947280884,5.57370138168335
2.099703550338745,-13.436260223388672,-2.3942017555236816,6.033388137817383
2.100802183151245,-13.350069046020508,-2.38462495803833,6.14831018447876
2.1029679775238037,-13.014880180358887,-2.049436569213867,5.793968200683594
2.105135440826416,-12.689269065856934,-1.7525556087493896,5.372588634490967
2.107311248779297,-12.507309913635254,-1.6184803247451782,5.353435039520264
2.10947847366333,-12.4785795211792,-1.6759412288665771,5.717353820800781
2.111652374267578,-12.440272331237793,-1.6855180263519287,5.9088897705078125
2.1127474308013916,-12.200851440429688,-1.5705963373184204,5.717353820800781
2.1149168014526367,-11.97100830078125,-1.37906014919281,5.190629482269287
2.1170904636383057,-11.990161895751953,-1.3694833517074585,4.8267107009887695
2.119258403778076,-12.22000503540039,-1.50355863571167,4.76924991607666
2.1203553676605225,-12.315773963928223,-1.7142484188079834,4.836287498474121
2.1225268840789795,-12.181697845458984,-1.6855180263519287,4.845864295959473
2.1246910095214844,-11.999738693237305,-1.580173134803772,4.606443881988525
2.1271214485168457,-11.760318756103516,-1.4844050407409668,4.443638324737549
2.128253936767578,-11.616666793823242,-1.5610195398330688,4.481945514678955
2.1304309368133545,-11.635820388793945,-1.6089035272598267,4.797980308532715
2.1326141357421875,-11.501745223999023,-1.5418659448623657,4.8937482833862305
2.134913682937622,-11.15697956085205,-1.436521053314209,4.817133903503418
2.1370863914489746,-10.773907661437988,-1.2258312702178955,4.778826713562012
2.1404170989990234,-10.467450141906738,-1.1492167711257935,5.027823448181152
2.141535520553589,-10.295066833496094,-1.158793568611145,5.353435039520264
2.1426212787628174,-10.074800491333008,-1.1971008777618408,5.602431774139404
2.1447668075561523,-9.84495735168457,-1.0534487962722778,5.477933406829834
2.1458616256713867,-9.653421401977539,-0.9385270476341248,5.20978307723999
2.148040771484375,-9.490615844726562,-0.9002198576927185,5.0469770431518555
2.1502115726470947,-9.423578262329102,-0.9385270476341248,4.932055473327637
2.1524431705474854,-9.394847869873047,-1.0055646896362305,4.912901878356934
2.1546623706817627,-9.299078941345215,-1.0247182846069336,4.845864295959473
2.1557703018188477,-9.155426979064941,-1.0055646896362305,4.481945514678955
2.157954216003418,-8.992621421813965,-0.9864110946655273,4.137180328369141
2.1601309776306152,-8.858546257019043,-0.9864110946655273,3.9839515686035156
2.162292003631592,-8.916007041931152,-1.1204863786697388,3.8977603912353516
2.164438486099243,-8.925583839416504,-1.2258312702178955,3.734954595565796
2.1655304431915283,-8.89685344696045,-1.216254472732544,3.4763808250427246
2.1677165031433105,-8.65743350982666,-1.2545616626739502,3.361459255218506
2.169905424118042,-8.40843677520752,-1.37906014919281,3.44765043258667
2.1721231937408447,-8.274360656738281,-1.4939818382263184,3.44765043258667
2.1743063926696777,-8.216899871826172,-1.4844050407409668,3.485957622528076
2.175408363342285,-7.747636795043945,-1.4269442558288574,3.734954595565796
2.1775872707366943,-7.33583402633667,-1.3503297567367554,3.8786067962646484
2.179764986038208,-7.086836814880371,-1.3120225667953491,3.8594532012939453
2.1819703578948975,-7.575253963470459,-1.2545616626739502,2.920926094055176
2.184133529663086,-8.159439086914062,-1.3694833517074585,2.126051187515259
2.185211658477783,-8.149862289428711,-1.7525556087493896,2.3558945655822754
2.187354564666748,-7.766790390014648,-2.078166961669922,3.179499864578247
2.1894984245300293,-7.2113356590271,-1.9728221893310547,3.265691041946411
2.1916394233703613,-6.818686485290527,-1.7334020137786865,2.7006595134735107
2.1938202381134033,-6.742072105407715,-1.599326729774475,2.499546527862549
2.1949241161346436,-6.6846113204956055,-1.436521053314209,2.82515811920166
2.197100877761841,-6.205770969390869,-1.3120225667953491,3.4093432426452637
2.1992785930633545,-5.746084213256836,-1.0055646896362305,3.3039982318878174
2.2014622688293457,-5.238513469696045,-0.6703764796257019,2.7676970958709717
2.203674077987671,-5.07570743560791,-0.871489405632019,2.7485435009002686
2.2047762870788574,-6.1770405769348145,-1.455674648284912,2.3558945655822754
2.206940174102783,-7.4986395835876465,-1.723825216293335,1.1204863786697388
2.209092140197754,-6.4164605140686035,-2.097320795059204,1.9153614044189453
2.2112417221069336,-6.090848922729492,-2.2409727573394775,3.332728862762451
2.2134194374084473,-5.4013190269470215,-1.800439715385437,3.5625722408294678
2.214500904083252,-4.299986362457275,-1.4652514457702637,3.294421434402466
2.216667413711548,-6.598419666290283,-1.9345149993896484,1.4748282432556152
2.2188491821289062,-5.142745018005371,-1.5514427423477173,3.5242648124694824
2.2210299968719482,-6.01423454284668,-2.279279947280884,3.3710360527038574
2.2232091426849365,-9.47146224975586,-1.800439715385437,-0.31603461503982544
2.2243199348449707,-6.943184852600098,-1.9249382019042969,-1.4939818382263184
2.22649884223938,-7.297526836395264,-2.1356279850006104,3.6966474056243896
2.22867751121521,-0.363918662071228,-2.31758713722229,14.767436027526855
2.2308948040008545,2.652775526046753,-1.647210717201233,13.235146522521973
2.233062744140625,-12.15296745300293,-0.5841852426528931,-1.3311761617660522
2.2341432571411133,-15.016432762145996,1.5705963373184204,-16.577451705932617
2.2362852096557617,-12.124237060546875,-1.5897499322891235,-4.8267107009887695
2.2384262084960938,-7.843404769897461,-2.279279947280884,15.227123260498047
2.240621328353882,8.973467826843262,1.455674648284912,17.669208526611328
2.242828607559204,2.4899697303771973,1.2449848651885986,4.548983097076416
2.2439322471618652,-5.966350555419922,2.078166961669922,-0.5746083855628967
2.246107816696167,-8.159439086914062,-0.9097966551780701,-2.31758713722229
2.248326063156128,-9.289502143859863,-5.07570743560791,9.787496566772461
2.25053071975708,-6.933608055114746,-0.6033388376235962,8.111555099487305
2.2527122497558594,-1.7621324062347412,5.9088897705078125,-5.2672438621521
2.2539148330688477,-2.892195701599121,2.853888511657715,-13.081917762756348
2.2560760974884033,-5.659893035888672,0.2585737705230713,-4.3191399574279785
2.258230447769165,-3.648763418197632,-3.648763418197632,8.83939266204834
2.2604050636291504,-6.962338447570801,-4.213795185089111,8.121131896972656
2.261484384536743,-5.20978307723999,1.292868971824646,-4.750096321105957
2.263627529144287,-5.39174222946167,2.078166961669922,-15.188815116882324
2.2658133506774902,-7.51779317855835,-2.2026655673980713,-5.9088897705078125
2.268000364303589,-4.683058738708496,-4.127603530883789,4.491522312164307
2.2701964378356934,-3.955221176147461,-2.920926094055176,8.08282470703125
2.272399663925171,-1.580173134803772,-1.647210717201233,4.960785865783691
2.2735018730163574,0.12449848651885986,0.4596867263317108,-1.6950948238372803
2.2756800651550293,0.2968810200691223,-1.0055646896362305,-1.2737152576446533
2.2778260707855225,-1.867477297782898,-3.1507694721221924,4.797980308532715
2.2799675464630127,-3.8498764038085938,-1.580173134803772,5.008669853210449
2.2810442447662354,-2.8347349166870117,0.05746084079146385,1.9057846069335938
2.2831830978393555,-2.3942017555236816,0.6224924325942993,-1.139639973640442
2.2853195667266846,1.0534487962722778,0.009576806798577309,-1.1971008777618408
2.287487745285034,0.6703764796257019,-1.4939818382263184,2.0685901641845703
2.2897109985351562,-2.7772738933563232,-1.7525556087493896,4.855441093444824
2.2919225692749023,-3.2752678394317627,-1.216254472732544,3.3518824577331543
2.293032169342041,-2.9305028915405273,-1.436521053314209,-0.33518823981285095
2.295214891433716,-1.8579005002975464,-1.599326729774475,-1.292868971824646
2.2973990440368652,-1.9345149993896484,-1.359906554222107,-1.359906554222107
2.299593687057495,-3.5051112174987793,-1.723825216293335,-0.028730420395731926
2.3017475605010986,-4.759673118591309,-2.2697031497955322,1.3215993642807007
2.302823305130005,-3.955221176147461,-2.470816135406494,0.7086837291717529
2.3049776554107666,-3.00711727142334,-1.867477297782898,-1.647210717201233
2.307138204574585,-1.8387469053268433,-0.545877993106842,-2.8347349166870117
2.309293508529663,-1.944091796875,-0.545877993106842,-1.6089035272598267
2.311495304107666,-3.045424461364746,-1.436521053314209,0.9002198576927185
2.3125975131988525,-2.786850690841675,-1.9345149993896484,1.9919757843017578
2.3147740364074707,-1.6376339197158813,-1.1683704853057861,0.9385270476341248
2.3169498443603516,0.009576806798577309,0.028730420395731926,-1.0055646896362305
2.3191375732421875,0.009576806798577309,0.1628057211637497,-1.2641384601593018
2.3213164806365967,-1.7525556087493896,-0.8523358106613159,0.40222588181495667
2.3224191665649414,-3.0837318897247314,-1.742978811264038,1.6376339197158813
2.3245670795440674,-2.8155810832977295,-1.6280571222305298,0.35434186458587646
2.326709508895874,-1.5705963373184204,-0.6129156351089478,-2.4133553504943848
2.328909397125244,-1.359906554222107,-0.3256114423274994,-2.7102363109588623
2.331080198287964,-2.38462495803833,-1.522712230682373,-0.5746083855628967
2.3321805000305176,-2.940079689025879,-2.7006595134735107,1.091755986213684
2.3343589305877686,-3.0837318897247314,-2.7293899059295654,0.8906430602073669
2.336700439453125,-2.585737943649292,-1.4077905416488647,-0.2968810200691223
2.3388898372650146,-1.8483237028121948,-0.7374141216278076,-1.3311761617660522
2.3399946689605713,-2.0207061767578125,-1.1683704853057861,-0.43095630407333374
2.3421742916107178,-2.786850690841675,-1.886630892753601,1.6950948238372803
2.3443551063537598,-2.9879636764526367,-1.9057846069335938,2.652775526046753
2.3465476036071777,-1.9919757843017578,-1.1013327836990356,2.145204782485962
2.3487086296081543,-0.8906430602073669,-0.2298433631658554,1.2545616626739502
2.3497841358184814,-0.7757213711738586,-0.24899697303771973,1.6759412288665771
2.3519387245178223,-1.8100165128707886,-0.7948749661445618,2.518700122833252
2.3540802001953125,-2.346317768096924,-0.9576807022094727,3.00711727142334
2.355294942855835,-2.250549554824829,-0.6416460275650024,2.7006595134735107
2.357586145401001,-1.6089035272598267,-0.24899697303771973,1.9823989868164062
2.3597769737243652,-1.3311761617660522,-0.3256114423274994,1.4077905416488647
2.3619675636291504,-1.9823989868164062,-0.8619126081466675,1.6663644313812256
2.3641583919525146,-2.7293899059295654,-1.2449848651885986,1.9345149993896484
2.3663971424102783,-3.00711727142334,-1.3407529592514038,1.5610195398330688
2.3675119876861572,-2.9879636764526367,-1.1204863786697388,0.6320692300796509
2.36968731880188,-2.8155810832977295,-0.8906430602073669,-0.35434186458587646
2.371837615966797,-3.0837318897247314,-1.0534487962722778,-0.8427590131759644
2.373988389968872,-3.581725835800171,-1.4269442558288574,-0.47884035110473633
2.376148223876953,-3.8307228088378906,-1.6663644313812256,0.009576806798577309
2.377232074737549,-3.6104562282562256,-1.6759412288665771,0.3064578175544739
2.3794033527374268,-2.9879636764526367,-1.3503297567367554,-0.181959331035614
2.381588935852051,-2.671929121017456,-1.235408067703247,-0.6224924325942993
2.3838038444519043,-3.0166940689086914,-1.4460978507995605,-0.14365209639072418
2.3860208988189697,-3.4380736351013184,-1.867477297782898,0.9481038451194763
2.387138605117798,-3.485957622528076,-2.0398597717285156,1.455674648284912
2.3893301486968994,-3.227383852005005,-1.800439715385437,1.0630255937576294
2.391519784927368,-3.160346269607544,-1.5514427423477173,0.22026655077934265
2.3936922550201416,-3.533841609954834,-1.599326729774475,-0.019153613597154617
2.3947741985321045,-4.108449935913086,-2.0398597717285156,0.5937620401382446
2.3969194889068604,-4.434061527252197,-2.403778553009033,1.2449848651885986
2.399066925048828,-4.3861775398254395,-2.31758713722229,1.2066776752471924
2.401212215423584,-4.2329487800598145,-2.1739351749420166,0.5746083855628967
2.4034183025360107,-4.338293552398682,-2.1930887699127197,0.35434186458587646
2.405606746673584,-4.884171485900879,-2.5282769203186035,0.7661445140838623
2.406712532043457,-5.477933406829834,-2.8634653091430664,1.4269442558288574
2.4089057445526123,-5.765237808227539,-2.7676970958709717,1.4748282432556152
2.4110920429229736,-5.449203014373779,-2.403778553009033,1.0247182846069336
2.4134910106658936,-5.219359874725342,-2.1547815799713135,0.8523358106613159
2.414604425430298,-5.324704647064209,-2.346317768096924,1.37906014919281
2.416762351989746,-5.583278179168701,-2.5282769203186035,2.2026655673980713
2.418914794921875,-5.688623428344727,-2.470816135406494,2.691082715988159
2.4210822582244873,-5.535394191741943,-2.0398597717285156,2.4133553504943848
2.423224449157715,-5.276820659637451,-1.7908629179000854,2.0877439975738525
2.424302816390991,-5.420472621917725,-1.7717092037200928,2.2409727573394775
2.4264769554138184,-5.765237808227539,-2.0590133666992188,2.911349296569824
2.4286563396453857,-6.090848922729492,-2.2409727573394775,3.2848446369171143
2.4308435916900635,-6.129156112670898,-2.145204782485962,3.1890766620635986
2.4330451488494873,-6.071695327758789,-2.0015525817871094,2.671929121017456
2.4341583251953125,-6.349422931671143,-1.9728221893310547,2.38462495803833
2.4363508224487305,-6.809109687805176,-2.2026655673980713,2.652775526046753
2.438547372817993,-7.1921820640563965,-2.451662540435791,2.9975404739379883
2.4407246112823486,-7.402871608734131,-2.557007312774658,3.07415509223938
2.4418046474456787,-7.33583402633667,-2.4612393379211426,2.7772738933563232
2.4439613819122314,-7.364564418792725,-2.4420857429504395,2.6623523235321045
2.4461119174957275,-7.603984832763672,-2.537853717803955,2.7964274883270264
2.448288917541504,-7.90086555480957,-2.738966703414917,3.1890766620635986
2.450472354888916,-8.02536392211914,-2.738966703414917,3.44765043258667
2.452655076980591,-7.948749542236328,-2.6240451335906982,3.361459255218506
2.4537556171417236,-7.824251174926758,-2.4612393379211426,3.141192674636841
2.4559381008148193,-7.833827972412109,-2.451662540435791,3.2752678394317627
2.4581618309020996,-7.95832633972168,-2.6144683361053467,3.5913026332855225
2.460359811782837,-8.130708694458008,-2.691082715988159,3.8786067962646484
2.462533712387085,-8.20732307434082,-2.537853717803955,3.734954595565796
2.4636130332946777,-8.159439086914062,-2.4229321479797363,3.485957622528076
2.465750217437744,-8.283937454223633,-2.432508945465088,3.1220390796661377
2.467945098876953,-8.523358345031738,-2.4612393379211426,3.1316158771514893
2.4700965881347656,-8.791508674621582,-2.5761611461639404,3.265691041946411
2.471170663833618,-9.002198219299316,-2.63362193107605,3.227383852005005
2.4733641147613525,-9.155426979064941,-2.5761611461639404,2.920926094055176
2.4755420684814453,-9.289502143859863,-2.557007312774658,2.7102363109588623
2.477715253829956,-9.490615844726562,-2.6240451335906982,2.7006595134735107
2.4798691272735596,-9.66299819946289,-2.75812029838562,2.9305028915405273
2.482042074203491,-9.873687744140625,-2.8347349166870117,3.179499864578247
2.4831392765045166,-9.921571731567383,-2.7772738933563232,3.3039982318878174
2.485391616821289,-9.873687744140625,-2.7006595134735107,3.3039982318878174
2.4875543117523193,-9.911994934082031,-2.7006595134735107,3.361459255218506
2.4897139072418213,-9.979032516479492,-2.6815059185028076,3.6966474056243896
2.4908013343811035,-10.247182846069336,-2.691082715988159,3.8977603912353516
2.492949962615967,-10.27591323852539,-2.738966703414917,4.165910720825195
2.495128631591797,-10.35252857208252,-2.7102363109588623,4.146757125854492
2.4973340034484863,-10.457873344421387,-2.691082715988159,4.108449935913086
2.4995431900024414,-10.620678901672363,-2.75812029838562,4.261679172515869
2.5006449222564697,-10.917559623718262,-2.853888511657715,4.491522312164307
2.5028254985809326,-11.15697956085205,-2.9496564865112305,4.491522312164307
2.5050086975097656,-11.291055679321289,-2.920926094055176,4.596867084503174
2.507213830947876,-11.405977249145508,-2.892195701599121,4.395754337310791
2.509385347366333,-11.501745223999023,-2.8347349166870117,4.3861775398254395
2.5104706287384033,-11.731588363647461,-2.853888511657715,4.568136692047119
2.5126218795776367,-11.932701110839844,-2.9305028915405273,4.692635536193848
2.514770746231079,-12.02846908569336,-2.8443117141723633,4.759673118591309
2.516920328140259,-11.999738693237305,-2.7772738933563232,4.721365928649902
2.5191009044647217,-12.038045883178711,-2.719813108444214,4.797980308532715
2.521463632583618,-12.114660263061523,-2.7485435009002686,4.970362663269043
2.522569179534912,-12.162544250488281,-2.7485435009002686,5.343858242034912
2.52475905418396,-12.191274642944336,-2.7293899059295654,5.544970989227295
2.5269505977630615,-12.143390655517578,-2.6623523235321045,5.612008571624756
2.5291686058044434,-12.181697845458984,-2.5953147411346436,5.592854976654053
2.5302834510803223,-12.181697845458984,-2.5761611461639404,5.784391403198242
2.532452344894409,-12.287043571472168,-2.5953147411346436,5.851428985595703
2.5345940589904785,-12.315773963928223,-2.6144683361053467,6.01423454284668
2.536757230758667,-12.430695533752441,-2.557007312774658,5.95677375793457
2.5378365516662598,-12.430695533752441,-2.537853717803955,6.004657745361328
2.5399768352508545,-12.536040306091309,-2.5474305152893066,5.784391403198242
2.542149543762207,-12.660538673400879,-2.6144683361053467,5.861005783081055
2.544325113296509,-12.804190635681152,-2.6431987285614014,5.851428985595703
2.5465033054351807,-12.928689002990723,-2.691082715988159,5.861005783081055
2.5487136840820312,-12.899958610534668,-2.671929121017456,5.726930618286133
2.549816846847534,-12.938265800476074,-2.63362193107605,5.5545477867126465
2.551997423171997,-12.938265800476074,-2.7006595134735107,5.612008571624756
2.5541768074035645,-13.03403377532959,-2.7485435009002686,5.679046630859375
2.556349992752075,-13.0914945602417,-2.786850690841675,5.57370138168335
2.5574259757995605,-13.110648155212402,-2.7676970958709717,5.583278179168701
2.5595643520355225,-13.139378547668457,-2.7964274883270264,5.564124584197998
2.561716318130493,-13.10107135772705,-2.873042106628418,5.477933406829834
2.563868522644043,-13.263877868652344,-3.026270866394043,5.5545477867126465
2.5660462379455566,-13.273454666137695,-3.1028854846954346,5.592854976654053
2.5682451725006104,-13.378799438476562,-3.1699230670928955,5.477933406829834
2.5693483352661133,-13.397953033447266,-3.2369606494903564,5.458779811859131
2.571528434753418,-13.48414421081543,-3.3039982318878174,5.439626216888428
2.5737149715423584,-13.532028198242188,-3.3710360527038574,5.2480902671813965
2.5759527683258057,-13.66610336303711,-3.5051112174987793,5.343858242034912
2.5781314373016357,-13.73314094543457,-3.5913026332855225,5.353435039520264
2.579213857650757,-13.761871337890625,-3.6583402156829834,5.2672438621521
2.581378698348999,-13.771448135375977,-3.706224203109741,5.228936672210693
2.5835258960723877,-13.819332122802734,-3.706224203109741,5.2672438621521
2.585679769515991,-13.848062515258789,-3.754108190536499,5.420472621917725
2.5878407955169678,-13.819332122802734,-3.754108190536499,5.449203014373779
2.588942766189575,-13.819332122802734,-3.754108190536499,5.535394191741943
2.591123104095459,-13.723564147949219,-3.7158010005950928,5.640739440917969
2.5932998657226562,-13.723564147949219,-3.7253777980804443,5.669469833374023
2.595512628555298,-13.656526565551758,-3.7158010005950928,5.832275390625
2.5976970195770264,-13.656526565551758,-3.7253777980804443,5.851428985595703
2.5988051891326904,-13.646949768066406,-3.687070608139038,5.995080947875977
2.600987672805786,-13.55118179321289,-3.706224203109741,5.937620162963867
2.603135108947754,-13.541604995727539,-3.6774938106536865,5.95677375793457
2.605292320251465,-13.493721008300781,-3.706224203109741,5.95677375793457
2.6074721813201904,-13.541604995727539,-3.7636849880218506,5.9088897705078125
2.6085586547851562,-13.522451400756836,-3.7924153804779053,5.899312973022461
2.610705614089966,-13.522451400756836,-3.7828385829925537,5.832275390625
2.612880229949951,-13.522451400756836,-3.801992416381836,5.832275390625
2.615102767944336,-13.48414421081543,-3.8115692138671875,5.726930618286133
2.6173412799835205,-13.407529830932617,-3.8307228088378906,5.688623428344727
2.6184616088867188,-13.436260223388672,-3.8498764038085938,5.679046630859375
2.6206624507904053,-13.30218505859375,-3.8977603912353516,5.688623428344727
2.6228930950164795,-13.148955345153809,-3.8594532012939453,5.659893035888672
2.625094175338745,-13.062764167785645,-3.8115692138671875,5.659893035888672
2.62617826461792,-12.966996192932129,-3.821146011352539,5.669469833374023
2.6292948722839355,-12.890381813049316,-3.7924153804779053,5.583278179168701
2.6303799152374268,-12.832921028137207,-3.773261785507202,5.564124584197998
2.632519483566284,-12.72757625579834,-3.801992416381836,5.602431774139404
2.634688138961792,-12.593501091003418,-3.773261785507202,5.506663799285889
2.6368706226348877,-12.440272331237793,-3.7828385829925537,5.363011837005615
2.637968063354492,-12.392388343811035,-3.8115692138671875,5.4013190269470215
2.6401400566101074,-12.42111873626709,-3.840299606323242,5.305551052093506
2.6423237323760986,-12.315773963928223,-3.88818359375,5.171475887298584
2.644503116607666,-12.287043571472168,-3.9169139862060547,5.094861030578613
2.6466736793518066,-12.267889976501465,-3.936067581176758,5.07570743560791
2.6480062007904053,-12.191274642944336,-3.9839515686035156,4.855441093444824
2.65016508102417,-12.181697845458984,-4.003105163574219,4.884171485900879
2.6523067951202393,-12.057199478149414,-4.041412353515625,4.903325080871582
2.6544406414031982,-11.999738693237305,-4.079719543457031,4.8267107009887695
2.6555137634277344,-11.91354751586914,-4.07014274597168,4.750096321105957
2.6576921939849854,-11.731588363647461,-4.060565948486328,4.76924991607666
2.659893035888672,-11.654973983764648,-4.050989151000977,4.750096321105957
2.662156343460083,-11.520898818969727,-4.01268196105957,4.750096321105957
2.6643497943878174,-11.396400451660156,-3.993528366088867,4.711789131164551
2.666579246520996,-11.27190113067627,-3.9169139862060547,4.702212333679199
2.667703628540039,-11.21444034576416,-3.907337188720703,4.730942726135254
2.6698837280273438,-11.061211585998535,-3.8786067962646484,4.654327869415283
2.6721057891845703,-11.022904396057129,-3.88818359375,4.654327869415283
2.674306869506836,-10.860098838806152,-3.8307228088378906,4.606443881988525
2.6765296459198,-10.831368446350098,-3.869029998779297,4.548983097076416
2.6776418685913086,-10.754754066467285,-3.8498764038085938,4.4723687171936035
2.6798033714294434,-10.65898609161377,-3.7924153804779053,4.443638324737549
2.6819801330566406,-10.591948509216309,-3.7828385829925537,4.395754337310791
2.6830780506134033,-10.390835762023926,-3.8115692138671875,4.414907932281494
2.6852498054504395,-10.266336441040039,-3.7253777980804443,4.299986362457275
2.687422037124634,-10.122684478759766,-3.6966474056243896,4.338293552398682
2.689591884613037,-10.007762908935547,-3.6104562282562256,4.299986362457275
2.691760540008545,-9.883264541625977,-3.5913026332855225,4.357447147369385
2.6928632259368896,-9.730035781860352,-3.4763808250427246,4.32871675491333
2.6950225830078125,-9.548076629638672,-3.4093432426452637,4.357447147369385
2.6971631050109863,-9.394847869873047,-3.3710360527038574,4.309563159942627
2.699328899383545,-9.14585018157959,-3.3039982318878174,4.280832767486572
2.7014760971069336,-9.02135181427002,-3.265691041946411,4.252102375030518
2.702549934387207,-8.829815864562988,-3.160346269607544,4.223371982574463
2.7047228813171387,-8.647856712341309,-3.0358476638793945,4.098873138427734
2.7069013118743896,-8.552088737487793,-2.9496564865112305,3.955221176147461
2.7090892791748047,-8.341399192810059,-2.892195701599121,3.8977603912353516
2.7112877368927,-8.159439086914062,-2.806004285812378,3.840299606323242
2.712400197982788,-8.054094314575195,-2.75812029838562,3.648763418197632
2.7145743370056152,-7.862558364868164,-2.691082715988159,3.6296098232269287
2.7167441844940186,-7.671022415161133,-2.6815059185028076,3.5051112174987793
2.7189011573791504,-7.51779317855835,-2.5953147411346436,3.3710360527038574
2.721035957336426,-7.33583402633667,-2.557007312774658,3.265691041946411
2.7221083641052246,-7.201758861541748,-2.5474305152893066,3.141192674636841
2.7242841720581055,-7.058106422424316,-2.4803929328918457,3.0358476638793945
2.7264387607574463,-6.89530086517334,-2.451662540435791,2.8634653091430664
2.7286224365234375,-6.789956092834473,-2.3942017555236816,2.7772738933563232
2.7308318614959717,-6.617573261260986,-2.3558945655822754,2.6240451335906982
2.7319352626800537,-6.464344501495361,-2.38462495803833,2.518700122833252
2.7341253757476807,-6.311115741729736,-2.3367409706115723,2.3942017555236816
2.736309766769409,-6.215347766876221,-2.3367409706115723,2.2888567447662354
2.7384886741638184,-6.081272125244141,-2.3080103397369385,2.212242364883423
2.740684747695923,-5.928043365478516,-2.279279947280884,2.049436569213867
2.7417633533477783,-5.832275390625,-2.2409727573394775,2.011129379272461
2.7439656257629395,-5.717353820800781,-2.2026655673980713,1.8579005002975464
2.7461202144622803,-5.602431774139404,-2.212242364883423,1.7525556087493896
2.748277187347412,-5.525817394256592,-2.231395959854126,1.7334020137786865
2.750469207763672,-5.382165431976318,-2.145204782485962,1.6759412288665771
2.7526772022247314,-5.228936672210693,-2.1164743900299072,1.522712230682373
2.753784418106079,-5.171475887298584,-2.0590133666992188,1.5322890281677246
2.7559728622436523,-5.0469770431518555,-2.011129379272461,1.5322890281677246
2.7581820487976074,-4.95120906829834,-2.030282974243164,1.5131354331970215
2.7604191303253174,-4.855441093444824,-1.9728221893310547,1.50355863571167
2.761530637741089,-4.721365928649902,-1.8962076902389526,1.4460978507995605
2.76370906829834,-4.616020679473877,-1.8579005002975464,1.4844050407409668
2.7658560276031494,-4.491522312164307,-1.800439715385437,1.4939818382263184
2.7679948806762695,-4.376600742340088,-1.7525556087493896,1.4844050407409668
2.770167112350464,-4.242525577545166,-1.7142484188079834,1.5705963373184204
2.7712550163269043,-4.146757125854492,-1.599326729774475,1.4939818382263184
2.773402452468872,-3.9839515686035156,-1.5514427423477173,1.580173134803772
2.7755796909332275,-3.8594532012939453,-1.5131354331970215,1.599326729774475
2.7777609825134277,-3.754108190536499,-1.4173674583435059,1.599326729774475
2.779940366744995,-3.6391866207122803,-1.3503297567367554,1.5897499322891235
2.7821080684661865,-3.533841609954834,-1.2449848651885986,1.580173134803772
2.7832043170928955,-3.3901896476745605,-1.2258312702178955,1.4844050407409668
2.785379409790039,-3.3231520652770996,-1.158793568611145,1.4939818382263184
2.7875430583953857,-3.246537446975708,-1.072602391242981,1.455674648284912
2.7896862030029297,-3.1316158771514893,-1.015141487121582,1.359906554222107
2.7907629013061523,-3.026270866394043,-0.9289502501487732,1.359906554222107
2.7929258346557617,-2.9879636764526367,-0.871489405632019,1.3215993642807007
2.795079469680786,-2.8347349166870117,-0.8140285611152649,1.216254472732544
2.7972543239593506,-2.806004285812378,-0.7948749661445618,1.139639973640442
2.799443006515503,-2.671929121017456,-0.7852981686592102,1.0821791887283325
2.8016226291656494,-2.6623523235321045,-0.7661445140838623,0.9576807022094727
2.8027234077453613,-2.5761611461639404,-0.7565677165985107,0.9385270476341248
2.8049161434173584,-2.5761611461639404,-0.7469909191131592,0.8427590131759644
2.807096242904663,-2.518700122833252,-0.7469909191131592,0.7469909191131592
2.809276819229126,-2.4899697303771973,-0.7086837291717529,0.6224924325942993
2.8104190826416016,-2.4420857429504395,-0.7757213711738586,0.5650315880775452
2.812582492828369,-2.451662540435791,-0.7374141216278076,0.507570743560791
2.8147525787353516,-2.451662540435791,-0.7565677165985107,0.43095630407333374
2.8169264793395996,-2.3750481605529785,-0.7948749661445618,0.33518823981285095
2.819085121154785,-2.3942017555236816,-0.8140285611152649,0.3256114423274994
2.8202013969421387,-2.3942017555236816,-0.7852981686592102,0.2585737705230713
2.8224029541015625,-2.3750481605529785,-0.8044517636299133,0.181959331035614
2.8245961666107178,-2.3367409706115723,-0.8427590131759644,0.14365209639072418
2.826836585998535,-2.31758713722229,-0.8427590131759644,0.13407529890537262
2.8290467262268066,-2.3080103397369385,-0.8523358106613159,0.22026655077934265
2.830157518386841,-2.298433542251587,-0.8427590131759644,0.14365209639072418
2.8323333263397217,-2.2601263523101807,-0.8523358106613159,0.1628057211637497
2.834517478942871,-2.298433542251587,-0.8523358106613159,0.2298433631658554
2.8366706371307373,-2.279279947280884,-0.8523358106613159,0.23942017555236816
2.8377485275268555,-2.2601263523101807,-0.871489405632019,0.2777273952960968
2.83992600440979,-2.31758713722229,-0.8523358106613159,0.33518823981285095
2.8420791625976562,-2.298433542251587,-0.9002198576927185,0.4213795065879822
2.8442485332489014,-2.3750481605529785,-0.9193734526634216,0.4596867263317108
2.8464183807373047,-2.365471363067627,-0.9481038451194763,0.4596867263317108
2.848588228225708,-2.4612393379211426,-0.9385270476341248,0.545877993106842
2.8496859073638916,-2.470816135406494,-0.9289502501487732,0.47884035110473633
2.851855754852295,-2.4612393379211426,-0.8619126081466675,0.545877993106842
2.8540244102478027,-2.4612393379211426,-0.8331822156906128,0.5841852426528931
2.8561902046203613,-2.4899697303771973,-0.8140285611152649,0.6224924325942993
2.8583693504333496,-2.537853717803955,-0.8044517636299133,0.6799532771110535
2.859452247619629,-2.557007312774658,-0.7852981686592102,0.727837324142456
2.8615894317626953,-2.5953147411346436,-0.7565677165985107,0.7661445140838623
2.863774538040161,-2.63362193107605,-0.7469909191131592,0.7374141216278076
2.86592173576355,-2.7102363109588623,-0.7469909191131592,0.8331822156906128
2.868077516555786,-2.806004285812378,-0.7565677165985107,0.8619126081466675
2.8702473640441895,-2.7676970958709717,-0.7182605266571045,0.9289502501487732
2.8713433742523193,-2.7772738933563232,-0.7086837291717529,0.9289502501487732
2.87351393699646,-2.853888511657715,-0.6991068720817566,0.9672574996948242
2.8756802082061768,-2.892195701599121,-0.6799532771110535,1.1109095811843872
2.8778457641601562,-2.920926094055176,-0.7374141216278076,1.072602391242981
2.8800365924835205,-3.0550012588500977,-0.7469909191131592,1.1204863786697388
2.8811278343200684,-3.141192674636841,-0.7852981686592102,1.1204863786697388
2.883267402648926,-3.2082302570343018,-0.8236053586006165,1.1779472827911377
2.8854362964630127,-3.3231520652770996,-0.871489405632019,1.158793568611145
2.887594699859619,-3.3518824577331543,-0.9002198576927185,1.1779472827911377
2.8897511959075928,-3.4380736351013184,-0.9385270476341248,1.1971008777618408
2.8908493518829346,-3.5721490383148193,-0.9768342971801758,1.2545616626739502
2.8930182456970215,-3.6583402156829834,-1.0438719987869263,1.2641384601593018
2.8951869010925293,-3.7158010005950928,-1.1109095811843872,1.2832920551300049
2.8973536491394043,-3.840299606323242,-1.1300631761550903,1.2737152576446533
2.8995299339294434,-3.9456443786621094,-1.1875240802764893,1.3503297567367554
2.901698589324951,-4.060565948486328,-1.216254472732544,1.3120225667953491
2.9028046131134033,-4.185064792633057,-1.2832920551300049,1.3503297567367554
2.904982566833496,-4.338293552398682,-1.3694833517074585,1.4077905416488647
2.907130718231201,-4.395754337310791,-1.3886369466781616,1.3503297567367554
2.909313678741455,-4.520252704620361,-1.436521053314209,1.3982137441635132
2.9103989601135254,-4.606443881988525,-1.4652514457702637,1.4844050407409668
2.912548542022705,-4.7405195236206055,-1.522712230682373,1.4269442558288574
2.91471791267395,-4.845864295959473,-1.5897499322891235,1.5322890281677246
2.9169199466705322,-4.999093055725098,-1.6663644313812256,1.522712230682373
2.9191765785217285,-5.094861030578613,-1.7334020137786865,1.5514427423477173
2.9202890396118164,-5.228936672210693,-1.7908629179000854,1.6089035272598267
2.922459363937378,-5.4013190269470215,-1.9057846069335938,1.6184803247451782
2.924633026123047,-5.535394191741943,-2.0015525817871094,1.6759412288665771
2.9268150329589844,-5.736507415771484,-2.049436569213867,1.7142484188079834
2.928971767425537,-5.861005783081055,-2.1356279850006104,1.7908629179000854
2.9300484657287598,-5.966350555419922,-2.2218191623687744,1.8483237028121948
2.9322166442871094,-6.167463779449463,-2.2888567447662354,2.0207061767578125
2.934372663497925,-6.301538944244385,-2.3271639347076416,2.097320795059204
2.9365313053131104,-6.426037311553955,-2.4229321479797363,2.183511972427368
2.9387006759643555,-6.57926607131958,-2.470816135406494,2.298433542251587
2.9397971630096436,-6.742072105407715,-2.585737943649292,2.3558945655822754
2.941965103149414,-6.904877662658691,-2.5953147411346436,2.4803929328918457
2.944134473800659,-7.048529624938965,-2.5761611461639404,2.557007312774658
2.946300506591797,-7.220912456512451,-2.6240451335906982,2.604891538619995
2.948469400405884,-7.326257228851318,-2.6623523235321045,2.8634653091430664
2.950666904449463,-7.422025203704834,-2.738966703414917,2.892195701599121
2.9517595767974854,-7.575253963470459,-2.671929121017456,3.045424461364746
2.9539010524749756,-7.718906402587891,-2.7676970958709717,3.160346269607544
2.956075668334961,-7.833827972412109,-2.75812029838562,3.2369606494903564
2.958223819732666,-7.939172744750977,-2.7676970958709717,3.2752678394317627
2.9593005180358887,-8.054094314575195,-2.8155810832977295,3.428496837615967
2.961465358734131,-8.159439086914062,-2.7964274883270264,3.399766445159912
2.9636332988739014,-8.26478385925293,-2.8443117141723633,3.581725835800171
2.9658026695251465,-8.446743965148926,-2.9017724990844727,3.667917013168335
2.967973470687866,-8.580819129943848,-2.892195701599121,3.7445313930511475
2.9702048301696777,-8.667010307312012,-2.9496564865112305,3.687070608139038
2.971302032470703,-8.791508674621582,-3.00711727142334,3.8786067962646484
2.9734957218170166,-8.89685344696045,-3.0358476638793945,3.9169139862060547
2.975651741027832,-8.944737434387207,-3.0837318897247314,3.9264907836914062
2.9777886867523193,-9.097966194152832,-3.1507694721221924,4.022258758544922
2.9799702167510986,-9.184157371520996,-3.1699230670928955,4.003105163574219
2.981053590774536,-9.308655738830566,-3.246537446975708,4.01268196105957
2.983207941055298,-9.442731857299805,-3.3039982318878174,3.993528366088867
2.9853923320770264,-9.576807022094727,-3.399766445159912,4.022258758544922
2.98757266998291,-9.730035781860352,-3.4572272300720215,4.022258758544922
2.9897518157958984,-9.835380554199219,-3.552995204925537,3.9647979736328125
2.9919233322143555,-9.998186111450195,-3.620033025741577,3.974374771118164
2.9930193424224854,-10.122684478759766,-3.6966474056243896,3.9839515686035156
2.9951953887939453,-10.199298858642578,-3.754108190536499,3.9456443786621094
2.997386932373047,-10.362105369567871,-3.7828385829925537,3.955221176147461
2.9995384216308594,-10.486603736877441,-3.8594532012939453,3.936067581176758
3.0006189346313477,-10.553641319274902,-3.8977603912353516,3.955221176147461
3.0028014183044434,-10.716446876525879,-3.936067581176758,3.9169139862060547
3.004951238632202,-10.879252433776855,-4.079719543457031,4.041412353515625
3.007131814956665,-10.975020408630371,-4.137180328369141,4.050989151000977
3.009310245513916,-11.128249168395996,-4.2329487800598145,4.07014274597168
3.011483669281006,-11.204863548278809,-4.280832767486572,4.165910720825195
3.012580633163452,-11.396400451660156,-4.32871675491333,4.20421838760376
3.014822244644165,-11.425130844116211,-4.424484729766846,4.271255970001221
3.0170116424560547,-11.549629211425781,-4.434061527252197,4.3191399574279785
3.0191876888275146,-11.693281173706055,-4.367023944854736,4.405331134796143
3.020293712615967,-11.72201156616211,-4.414907932281494,4.568136692047119
3.022451639175415,-11.856086730957031,-4.4723687171936035,4.481945514678955
3.024623394012451,-11.884817123413086,-4.424484729766846,4.654327869415283
3.0268523693084717,-12.057199478149414,-4.481945514678955,4.721365928649902
3.0279369354248047,-12.076353073120117,-4.414907932281494,4.884171485900879
3.0301308631896973,-12.085929870605469,-4.405331134796143,4.845864295959473
3.0323123931884766,-12.200851440429688,-4.376600742340088,4.999093055725098
3.0344812870025635,-12.22000503540039,-4.357447147369385,5.1331682205200195
3.036656141281128,-12.258312225341797,-4.309563159942627,5.276820659637451
3.0388286113739014,-12.258312225341797,-4.280832767486572,5.2672438621521
3.0399246215820312,-12.344504356384277,-4.261679172515869,5.353435039520264
3.04209041595459,-12.373234748840332,-4.261679172515869,5.4875102043151855
3.044248104095459,-12.401965141296387,-4.2329487800598145,5.439626216888428
3.0463836193084717,-12.440272331237793,-4.223371982574463,5.497087001800537
3.0485267639160156,-12.4785795211792,-4.223371982574463,5.57370138168335
3.0496068000793457,-12.516886711120605,-4.223371982574463,5.621585369110107
3.0519051551818848,-12.60307788848877,-4.223371982574463,5.640739440917969
3.054100275039673,-12.650961875915527,-4.2329487800598145,5.679046630859375
3.0562825202941895,-12.641385078430176,-4.223371982574463,5.631162166595459
3.058455228805542,-12.708422660827637,-4.223371982574463,5.717353820800781
3.0595543384552,-12.7946138381958,-4.223371982574463,5.669469833374023
3.0617287158966064,-12.775460243225098,-4.223371982574463,5.659893035888672
3.063900947570801,-12.842497825622559,-4.223371982574463,5.544970989227295
3.066068410873413,-12.823344230651855,-4.242525577545166,5.679046630859375
3.0671467781066895,-12.861651420593262,-4.271255970001221,5.5545477867126465
3.0692856311798096,-12.832921028137207,-4.299986362457275,5.57370138168335
3.0714306831359863,-12.871228218078613,-4.280832767486572,5.468356609344482
3.0735769271850586,-12.919112205505371,-4.299986362457275,5.51624059677124
3.0757596492767334,-12.899958610534668,-4.338293552398682,5.4013190269470215
3.0779523849487305,-12.928689002990723,-4.3191399574279785,5.39174222946167
3.079061269760132,-12.90953540802002,-4.3191399574279785,5.286397457122803
3.0812337398529053,-12.899958610534668,-4.252102375030518,5.315127849578857
3.083405017852783,-12.928689002990723,-4.299986362457275,5.200206279754639
3.0855770111083984,-12.90953540802002,-4.3191399574279785,5.1331682205200195
3.0877439975738525,-12.966996192932129,-4.309563159942627,5.152322292327881
3.0888381004333496,-12.928689002990723,-4.280832767486572,5.066130638122559
3.0909979343414307,-12.928689002990723,-4.347870349884033,5.0469770431518555
3.0931427478790283,-12.928689002990723,-4.261679172515869,5.066130638122559
3.0952770709991455,-12.938265800476074,-4.299986362457275,5.018246650695801
3.096351146697998,-12.928689002990723,-4.280832767486572,4.989516258239746
3.098517417907715,-12.90953540802002,-4.242525577545166,4.989516258239746
3.1006932258605957,-12.899958610534668,-4.194641590118408,5.0469770431518555
3.10286283493042,-12.7946138381958,-4.175487995147705,5.0469770431518555
3.1050310134887695,-12.832921028137207,-4.079719543457031,5.027823448181152
3.107203245162964,-12.756306648254395,-4.050989151000977,5.037400245666504
3.1093714237213135,-12.660538673400879,-4.022258758544922,5.114014625549316
3.1104652881622314,-12.679692268371582,-3.9169139862060547,5.104437828063965
3.112636089324951,-12.631808280944824,-3.88818359375,5.1331682205200195
3.1147592067718506,-12.536040306091309,-3.801992416381836,5.152322292327881
3.1168954372406006,-12.497733116149902,-3.7445313930511475,5.161899089813232
3.120055913925171,-12.392388343811035,-3.7158010005950928,5.190629482269287
3.1211395263671875,-12.334927558898926,-3.620033025741577,5.1810526847839355
3.1222476959228516,-12.325350761413574,-3.5434184074401855,5.171475887298584
3.1244301795959473,-12.248735427856445,-3.466804027557373,5.142745018005371
3.126598596572876,-12.15296745300293,-3.4763808250427246,5.161899089813232
3.128772258758545,-12.124237060546875,-3.3901896476745605,5.152322292327881
3.130948305130005,-12.047622680664062,-3.294421434402466,5.152322292327881
3.132047414779663,-11.961431503295898,-3.265691041946411,5.152322292327881
3.1342148780822754,-11.856086730957031,-3.227383852005005,5.123591423034668
3.1363751888275146,-11.827356338500977,-3.19865345954895,5.056553840637207
3.1385114192962646,-11.702857971191406,-3.1220390796661377,5.018246650695801
3.1406476497650146,-11.597513198852539,-3.1028854846954346,5.0469770431518555
3.1417202949523926,-11.501745223999023,-3.026270866394043,4.999093055725098
3.1438188552856445,-11.444284439086914,-2.9879636764526367,4.970362663269043
3.1460111141204834,-11.348516464233398,-2.9305028915405273,4.922478675842285
3.148207902908325,-11.21444034576416,-2.920926094055176,4.807557106018066
3.1503922939300537,-11.15697956085205,-2.8826189041137695,4.750096321105957
3.1515345573425293,-11.051634788513184,-2.806004285812378,4.721365928649902
3.153721332550049,-10.96544361114502,-2.8155810832977295,4.692635536193848
3.1558949947357178,-10.84094524383545,-2.8155810832977295,4.587290287017822
3.1580631732940674,-10.773907661437988,-2.7485435009002686,4.529829502105713
3.160233497619629,-10.649409294128418,-2.7485435009002686,4.395754337310791
3.1613128185272217,-10.60152530670166,-2.7772738933563232,4.290409564971924
3.163450241088867,-10.505757331848145,-2.738966703414917,4.280832767486572
3.1656100749969482,-10.409989356994629,-2.7102363109588623,4.146757125854492
3.1677534580230713,-10.314221382141113,-2.7102363109588623,4.127603530883789
3.1699135303497314,-10.20887565612793,-2.719813108444214,4.089296340942383
3.1720833778381348,-10.113107681274414,-2.7006595134735107,4.108449935913086
3.1731786727905273,-10.02691650390625,-2.671929121017456,3.9839515686035156
3.175360918045044,-9.940725326538086,-2.6815059185028076,3.9264907836914062
3.1775412559509277,-9.864110946655273,-2.6623523235321045,3.8498764038085938
3.179727792739868,-9.730035781860352,-2.6431987285614014,3.754108190536499
3.181929349899292,-9.701305389404297,-2.6144683361053467,3.7445313930511475
3.183021068572998,-9.500192642211914,-2.6240451335906982,3.7158010005950928
3.185175657272339,-9.423578262329102,-2.604891538619995,3.6966474056243896
3.187347412109375,-9.337387084960938,-2.585737943649292,3.7253777980804443
3.1895017623901367,-9.251194953918457,-2.5665841102600098,3.648763418197632
3.190579652786255,-9.14585018157959,-2.4899697303771973,3.6583402156829834
3.192762851715088,-9.059659004211426,-2.432508945465088,3.6104562282562256
3.194943428039551,-8.954314231872559,-2.432508945465088,3.5434184074401855
3.197119951248169,-8.829815864562988,-2.403778553009033,3.4955344200134277
3.1993300914764404,-8.724471092224121,-2.3271639347076416,3.514688014984131
3.201509714126587,-8.609549522399902,-2.3271639347076416,3.5434184074401855
3.202615737915039,-8.513781547546387,-2.2888567447662354,3.466804027557373
3.204796552658081,-8.418013572692871,-2.2409727573394775,3.466804027557373
3.2069437503814697,-8.303091049194336,-2.1547815799713135,3.44765043258667
3.209085702896118,-8.14028549194336,-2.1356279850006104,3.466804027557373
3.211290121078491,-8.044517517089844,-2.097320795059204,3.4093432426452637
3.212376832962036,-7.90086555480957,-2.0207061767578125,3.3901896476745605
3.2145230770111084,-7.805097579956055,-1.9728221893310547,3.3423056602478027
3.2166922092437744,-7.680599212646484,-1.9249382019042969,3.3423056602478027
3.2189059257507324,-7.527369976043701,-1.9345149993896484,3.313575267791748
3.22114634513855,-7.422025203704834,-1.8483237028121948,3.1699230670928955
3.2222542762756348,-7.2783732414245605,-1.8579005002975464,3.1699230670928955
3.224443197250366,-7.2113356590271,-1.8579005002975464,3.112462282180786
3.226630687713623,-7.038952827453613,-1.8291701078414917,3.00711727142334
3.228829860687256,-6.943184852600098,-1.7812861204147339,2.9688100814819336
3.2299094200134277,-6.856993675231934,-1.7142484188079834,2.8347349166870117
3.232057809829712,-6.675034523010254,-1.7621324062347412,2.806004285812378
3.234208345413208,-6.560112476348877,-1.7142484188079834,2.7102363109588623
3.2363979816436768,-6.4164605140686035,-1.7046716213226318,2.5953147411346436
3.2385661602020264,-6.358999729156494,-1.6759412288665771,2.5761611461639404
3.2407798767089844,-6.253654956817627,-1.6855180263519287,2.4133553504943848
3.241882801055908,-6.129156112670898,-1.7046716213226318,2.38462495803833
3.244063138961792,-6.100425720214844,-1.7142484188079834,2.2409727573394775
3.2462451457977295,-5.985504150390625,-1.6663644313812256,2.2026655673980713
3.24843692779541,-5.889736175537109,-1.6759412288665771,2.0877439975738525
3.2495388984680176,-5.832275390625,-1.7046716213226318,2.0685901641845703
3.2517662048339844,-5.736507415771484,-1.7621324062347412,1.9919757843017578
3.253910779953003,-5.659893035888672,-1.7621324062347412,1.9728221893310547
